* Measurement data measured by REW V5.20.13
* Source: C:\Users\starf\Downloads\KossxDropPortaProXTed R.txt
* Format: Comma/Tab/Space delimited data
* Dated: Aug 12, 2023 5:29:53 PM
* REW Settings:
*  C-weighting compensation: Off
*  Target level: 75.0 dB
* Note: ; Measurement imported from C:\Users\starf\Downloads\KossxDropPortaProXTed R.txt Format: Comma/Tab/Space delimited data 480 values loaded, 20 Hz to 19,753 Hz log spaced 
* Measurement: KossxDropPortaProXTed R
* Smoothing: 1/24 octave
* Frequency Step: 1/48 octave
* Start Frequency: 20.000 Hz
*
* Freq(Hz)	SPL(dB)	Phase(degrees)
20.000000	79.349	-37.7436
20.299999	79.546	-37.8276
20.600000	79.781	-38.1393
20.900000	79.985	-38.5673
21.200001	80.172	-38.9402
21.400000	80.306	-39.1620
21.799999	80.612	-39.7938
22.000000	80.775	-40.3750
22.400000	81.062	-42.2745
22.700001	81.180	-44.1767
23.000000	81.184	-46.0501
23.299999	81.102	-47.3834
23.600000	81.009	-47.8991
24.000000	81.014	-47.6099
24.299999	81.178	-47.3458
24.700001	81.547	-47.9142
25.000000	81.823	-49.2872
25.400000	82.076	-51.9317
25.799999	82.198	-54.4953
26.200001	82.294	-56.3950
26.500000	82.417	-57.5390
26.900000	82.658	-59.2341
27.200001	82.845	-60.8852
27.600000	83.025	-63.4291
28.000000	83.106	-65.7348
28.500000	83.157	-67.6364
29.000000	83.258	-68.6859
29.500000	83.383	-69.2719
30.000000	83.517	-68.9412
30.400000	83.747	-67.7597
30.700001	84.060	-66.7104
31.100000	84.622	-66.0482
31.500000	85.172	-66.9624
32.000000	85.578	-69.7319
32.500000	85.632	-71.9780
33.000000	85.613	-71.9986
33.500000	85.852	-70.7945
34.000000	86.302	-70.7358
34.500000	86.640	-72.5956
35.000000	86.701	-74.9052
35.500000	86.608	-75.9611
36.000000	86.619	-75.7113
36.500000	86.844	-75.4872
37.000000	87.160	-76.4397
37.500000	87.387	-78.5519
38.200001	87.436	-81.7103
38.700001	87.379	-82.7715
39.500000	87.530	-82.3052
40.000000	87.891	-82.2739
40.599998	88.367	-84.0410
41.200001	88.575	-87.0541
41.799999	88.507	-88.9938
42.500000	88.465	-88.6388
43.099998	88.707	-87.8394
43.700001	89.055	-88.3268
44.400002	89.299	-90.3326
45.000000	89.332	-92.0154
45.500000	89.302	-92.8908
46.200001	89.293	-93.4001
46.799999	89.379	-93.6279
47.500000	89.572	-94.3373
48.200001	89.761	-95.7893
48.700001	89.847	-96.9849
49.400002	89.925	-98.3610
50.000000	90.015	-99.2294
50.799999	90.180	-100.4102
51.500000	90.306	-101.6031
52.200001	90.393	-102.7003
53.000000	90.474	-103.6997
53.799999	90.558	-104.5741
54.500000	90.631	-105.3442
55.200001	90.704	-106.1559
56.000000	90.786	-107.1345
57.000000	90.898	-108.3897
58.000000	91.039	-109.7006
59.000000	91.200	-111.2324
60.000000	91.326	-112.9175
60.799999	91.397	-114.0932
61.500000	91.461	-114.9408
62.200001	91.536	-115.7629
63.000000	91.614	-116.7911
64.000000	91.672	-118.0601
65.000000	91.717	-119.1100
66.000000	91.784	-120.1241
67.000000	91.852	-121.2920
68.000000	91.896	-122.4661
69.000000	91.936	-123.4854
70.000000	91.995	-124.4213
71.000000	92.067	-125.4105
72.000000	92.132	-126.4642
73.000000	92.184	-127.4956
74.000000	92.229	-128.4402
75.000000	92.276	-129.3260
76.199997	92.339	-130.4104
77.500000	92.404	-131.7023
78.800003	92.458	-133.1377
80.000000	92.493	-134.5154
81.199997	92.521	-135.8314
82.500000	92.555	-137.1210
83.800003	92.588	-138.2781
85.000000	92.610	-139.2609
86.199997	92.614	-140.2495
87.500000	92.583	-141.4295
88.500000	92.526	-142.4123
90.000000	92.387	-143.7878
91.199997	92.267	-144.5228
92.500000	92.189	-144.8879
93.800003	92.190	-145.0894
95.000000	92.234	-145.3200
96.199997	92.290	-145.6232
97.500000	92.352	-146.0328
98.800003	92.413	-146.5673
100.000000	92.462	-147.1782
101.500000	92.512	-148.0239
103.000000	92.551	-148.9084
104.400002	92.570	-149.7244
106.000000	92.572	-150.6596
107.500000	92.548	-151.5771
109.000000	92.502	-152.4857
110.599998	92.439	-153.3876
112.000000	92.386	-154.0426
113.800003	92.347	-154.6433
115.000000	92.351	-154.9478
117.199997	92.402	-155.4788
118.000000	92.424	-155.7025
120.599998	92.471	-156.6329
122.000000	92.468	-157.2206
124.099998	92.453	-158.1755
125.000000	92.450	-158.6223
126.500000	92.445	-159.3987
128.000000	92.428	-160.1368
131.500000	92.324	-161.5251
132.000000	92.305	-161.6906
134.000000	92.234	-162.2598
136.000000	92.188	-162.6907
138.000000	92.168	-163.0367
140.000000	92.151	-163.3535
143.000000	92.129	-163.8460
145.000000	92.130	-164.3074
147.500000	92.128	-165.0033
150.000000	92.100	-165.5939
152.500000	92.074	-166.0501
155.000000	92.070	-166.5180
157.500000	92.073	-167.0436
160.000000	92.064	-167.5839
162.500000	92.045	-168.1519
165.000000	92.029	-168.7575
167.500000	92.015	-169.3441
170.000000	91.992	-169.8328
172.500000	91.963	-170.2176
175.000000	91.943	-170.5756
177.500000	91.940	-170.9350
180.000000	91.947	-171.2576
182.500000	91.953	-171.5538
185.000000	91.950	-171.8941
187.500000	91.939	-172.3405
190.000000	91.925	-172.9146
192.500000	91.916	-173.6344
195.000000	91.920	-174.5194
197.500000	91.934	-175.5446
200.000000	91.941	-176.6513
203.000000	91.905	-178.0339
206.000000	91.802	-179.4535
209.000000	91.630	179.2780
212.000000	91.395	178.5209
214.000000	91.215	178.3558
218.000000	90.867	178.5581
220.000000	90.737	178.8263
224.000000	90.583	179.5548
227.000000	90.524	-179.9206
230.000000	90.490	-179.4953
233.000000	90.469	-179.1408
236.000000	90.450	-178.8656
240.000000	90.429	-178.6688
243.000000	90.415	-178.6122
247.000000	90.388	-178.5903
250.000000	90.364	-178.5966
254.000000	90.336	-178.6117
258.000000	90.306	-178.6405
262.000000	90.269	-178.6942
265.000000	90.239	-178.7446
269.000000	90.206	-178.8042
272.000000	90.185	-178.8364
276.000000	90.158	-178.8757
280.000000	90.129	-178.9156
285.000000	90.091	-178.9599
290.000000	90.051	-178.9934
295.000000	90.003	-178.9855
300.000000	89.956	-178.9565
304.000000	89.920	-178.9515
307.000000	89.895	-178.9619
311.000000	89.865	-178.9800
315.000000	89.843	-178.9796
320.000000	89.816	-178.9583
325.000000	89.775	-178.9439
330.000000	89.725	-178.9101
335.000000	89.681	-178.8283
340.000000	89.651	-178.7274
345.000000	89.637	-178.6584
350.000000	89.627	-178.6228
355.000000	89.607	-178.5817
360.000000	89.579	-178.5421
365.000000	89.548	-178.5222
370.000000	89.519	-178.4673
375.000000	89.497	-178.4052
382.000000	89.472	-178.4157
387.000000	89.457	-178.4197
395.000000	89.436	-178.3685
400.000000	89.422	-178.4154
406.000000	89.397	-178.5444
412.000000	89.357	-178.6024
418.000000	89.294	-178.6352
425.000000	89.189	-178.7414
431.000000	89.074	-178.7502
437.000000	88.946	-178.4894
444.000000	88.812	-177.7942
450.000000	88.736	-176.9920
455.000000	88.706	-176.3020
462.000000	88.701	-175.4719
468.000000	88.722	-174.9698
475.000000	88.759	-174.5709
482.000000	88.796	-174.2072
487.000000	88.820	-173.9300
494.000000	88.844	-173.5882
500.000000	88.856	-173.3835
508.000000	88.865	-173.1602
515.000000	88.868	-172.9559
522.000000	88.866	-172.7505
530.000000	88.865	-172.5052
538.000000	88.869	-172.2355
545.000000	88.873	-171.9886
552.000000	88.875	-171.7612
560.000000	88.879	-171.5330
570.000000	88.882	-171.2366
580.000000	88.888	-170.9057
590.000000	88.897	-170.5850
600.000000	88.907	-170.3006
608.000000	88.909	-170.0876
615.000000	88.909	-169.8915
622.000000	88.907	-169.6748
630.000000	88.905	-169.4084
640.000000	88.903	-169.0582
650.000000	88.906	-168.6855
660.000000	88.917	-168.3131
670.000000	88.935	-167.9619
680.000000	88.952	-167.6072
690.000000	88.970	-167.2359
700.000000	88.989	-166.8768
710.000000	89.007	-166.5487
720.000000	89.027	-166.2362
730.000000	89.052	-165.9240
740.000000	89.079	-165.6113
750.000000	89.105	-165.3061
762.000000	89.132	-164.9576
775.000000	89.162	-164.5954
788.000000	89.195	-164.2476
800.000000	89.226	-163.9287
812.000000	89.256	-163.6063
825.000000	89.282	-163.2644
838.000000	89.302	-162.9347
850.000000	89.323	-162.6327
862.000000	89.350	-162.3081
875.000000	89.381	-161.9233
885.000000	89.406	-161.6002
900.000000	89.447	-161.0825
912.000000	89.483	-160.6658
925.000000	89.523	-160.2407
938.000000	89.564	-159.8476
950.000000	89.604	-159.5029
962.000000	89.645	-159.1675
975.000000	89.688	-158.8004
988.000000	89.733	-158.4233
1000.000000	89.774	-158.0765
1015.000000	89.830	-157.6515
1030.000000	89.889	-157.2282
1044.000000	89.944	-156.8268
1060.000000	90.004	-156.3472
1075.000000	90.062	-155.8771
1090.000000	90.124	-155.4010
1106.000000	90.197	-154.9010
1120.000000	90.267	-154.4741
1138.000000	90.361	-153.9360
1150.000000	90.425	-153.5732
1172.000000	90.544	-152.8992
1180.000000	90.590	-152.6609
1206.000000	90.751	-151.9299
1220.000000	90.844	-151.5602
1241.000000	90.986	-151.0264
1250.000000	91.047	-150.8019
1265.000000	91.152	-150.4387
1280.000000	91.260	-150.0961
1315.000000	91.520	-149.3553
1320.000000	91.559	-149.2569
1340.000000	91.715	-148.8910
1360.000000	91.876	-148.5683
1380.000000	92.038	-148.2811
1400.000000	92.205	-148.0255
1430.000000	92.461	-147.6984
1450.000000	92.633	-147.5065
1475.000000	92.860	-147.2655
1500.000000	93.115	-147.0643
1525.000000	93.398	-147.1236
1550.000000	93.662	-147.5764
1575.000000	93.868	-148.1638
1600.000000	94.036	-148.5246
1625.000000	94.220	-148.5693
1650.000000	94.456	-148.5253
1675.000000	94.736	-148.6747
1700.000000	95.028	-149.1279
1725.000000	95.308	-149.8318
1750.000000	95.574	-150.6617
1775.000000	95.838	-151.5563
1800.000000	96.113	-152.5826
1825.000000	96.390	-153.8332
1850.000000	96.655	-155.3744
1875.000000	96.884	-157.1961
1900.000000	97.062	-159.1448
1925.000000	97.201	-161.0626
1950.000000	97.315	-162.9359
1975.000000	97.408	-164.7817
2000.000000	97.485	-166.5665
2030.000000	97.568	-168.6862
2060.000000	97.624	-170.8903
2090.000000	97.634	-173.0758
2120.000000	97.605	-175.1062
2140.000000	97.570	-176.3485
2180.000000	97.481	-178.5347
2200.000000	97.435	-179.4417
2240.000000	97.378	179.0224
2270.000000	97.375	177.8375
2300.000000	97.379	176.4594
2330.000000	97.363	174.9155
2360.000000	97.308	173.3327
2400.000000	97.186	171.4567
2430.000000	97.082	170.3152
2470.000000	96.954	169.0457
2500.000000	96.876	168.1953
2540.000000	96.791	167.0681
2580.000000	96.709	165.9146
2620.000000	96.618	164.7953
2650.000000	96.545	164.0674
2690.000000	96.465	163.2746
2720.000000	96.433	162.7412
2760.000000	96.428	161.9479
2800.000000	96.450	160.9437
2850.000000	96.494	159.2731
2900.000000	96.513	157.0407
2950.000000	96.451	154.4299
3000.000000	96.276	151.8597
3040.000000	96.069	150.2338
3070.000000	95.903	149.4002
3110.000000	95.715	148.7892
3150.000000	95.622	148.4524
3200.000000	95.640	147.6714
3250.000000	95.717	146.0817
3300.000000	95.777	143.7292
3350.000000	95.779	140.8873
3400.000000	95.723	137.7924
3450.000000	95.616	134.6264
3500.000000	95.484	131.5078
3550.000000	95.370	128.3904
3600.000000	95.309	124.9757
3650.000000	95.292	120.8446
3700.000000	95.285	115.7567
3750.000000	95.262	109.5390
3820.000000	95.174	98.5710
3870.000000	95.028	88.5542
3950.000000	94.521	67.9655
4000.000000	93.947	52.0324
4060.000000	92.906	30.0758
4120.000000	91.525	6.2400
4180.000000	89.969	-17.8735
4250.000000	88.326	-43.9067
4310.000000	87.399	-62.6561
4370.000000	87.047	-77.1959
4440.000000	87.240	-89.0007
4500.000000	87.783	-95.6572
4550.000000	88.425	-99.5257
4620.000000	89.529	-103.4274
4680.000000	90.640	-106.1196
4750.000000	92.087	-109.4005
4820.000000	93.621	-113.6400
4870.000000	94.723	-117.6154
4940.000000	96.199	-124.8470
5000.000000	97.318	-132.8252
5080.000000	98.454	-145.9319
5150.000000	99.003	-158.9241
5220.000000	99.104	-171.9711
5300.000000	98.764	174.6837
5380.000000	98.123	163.8145
5450.000000	97.474	156.1085
5520.000000	96.835	149.3856
5600.000000	96.127	142.0146
5700.000000	95.141	132.6667
5800.000000	93.881	123.6958
5900.000000	92.278	116.1086
6000.000000	90.317	111.0897
6080.000000	88.505	109.9802
6150.000000	86.799	111.7588
6220.000000	85.085	116.2291
6300.000000	83.300	124.3015
6400.000000	81.691	137.3542
6500.000000	81.068	150.9582
6600.000000	81.264	162.6121
6700.000000	81.909	171.6194
6800.000000	82.817	177.8683
6900.000000	83.765	-179.4167
7000.000000	84.439	179.8653
7100.000000	84.674	177.5616
7200.000000	84.519	175.9188
7300.000000	84.154	176.1351
7400.000000	83.768	178.1946
7500.000000	83.465	-178.3994
7620.000000	83.290	-172.8021
7750.000000	83.566	-165.2093
7880.000000	84.550	-158.1136
8000.000000	85.876	-154.7525
8120.000000	87.145	-155.9665
8250.000000	88.062	-161.6182
8380.000000	88.354	-169.0639
8500.000000	88.138	-174.9583
8620.000000	87.656	-178.6335
8750.000000	87.077	179.6277
8850.000000	86.676	179.2519
9000.000000	86.154	179.5643
9120.000000	85.796	-179.6530
9250.000000	85.455	-178.3326
9380.000000	85.180	-176.3647
9500.000000	85.048	-174.0910
9620.000000	85.074	-171.7277
9750.000000	85.306	-169.4187
9880.000000	85.787	-167.9475
10000.000000	86.401	-168.3877
10150.000000	87.106	-172.4386
10300.000000	87.466	-179.6309
10440.000000	87.440	172.2352
10600.000000	87.026	162.1218
10750.000000	86.251	152.2228
10900.000000	85.057	142.5007
11060.000000	83.323	132.5941
11200.000000	81.397	123.4736
11380.000000	78.315	106.3925
11500.000000	76.040	85.5065
11720.000000	74.004	23.7448
11800.000000	75.044	-0.1876
12060.000000	80.665	-59.0761
12200.000000	83.131	-77.8187
12410.000000	85.913	-97.6206
12500.000000	86.860	-105.1005
12650.000000	88.188	-117.1074
12800.000000	89.227	-129.2965
13150.000000	90.591	-160.2141
13200.000000	90.649	-164.7849
13400.000000	90.442	177.0635
13600.000000	89.630	160.2831
13800.000000	88.301	146.0308
14000.000000	86.633	134.3055
14300.000000	83.880	117.3175
14500.000000	81.823	102.0000
14750.000000	78.600	71.0354
15000.000000	74.500	20.0680
15250.000000	71.114	-41.7363
15500.000000	71.044	-87.3741
15750.000000	72.476	-109.1194
16000.000000	73.645	-119.8870
16250.000000	74.063	-129.1272
16500.000000	73.686	-136.8760
16750.000000	72.851	-141.7133
17000.000000	71.919	-144.8319
17250.000000	70.942	-147.1111
17500.000000	69.991	-148.0399
17750.000000	69.330	-148.3441
18000.000000	69.023	-149.3331
18250.000000	68.966	-151.1520
18500.000000	69.099	-153.9263
18750.000000	69.239	-158.1857
19000.000000	69.088	-163.1438
19250.000000	68.501	-166.5129
19500.000000	67.619	-166.8700
19750.000000	66.928	-165.6550
