* Measurement data measured by REW V5.20.13
* Source: C:\Users\starf\Downloads\Koss-Sporta-Pro-Ted_L.txt
* Format: Comma/Tab/Space delimited data
* Dated: Aug 12, 2023 5:30:02 PM
* REW Settings:
*  C-weighting compensation: Off
*  Target level: 75.0 dB
* Note: ; Measurement imported from C:\Users\starf\Downloads\Koss-Sporta-Pro-Ted_L.txt Format: Comma/Tab/Space delimited data 480 values loaded, 20 Hz to 19,753 Hz log spaced 
* Measurement: Koss-Sporta-Pro-Ted_L
* Smoothing: 1/24 octave
* Frequency Step: 1/48 octave
* Start Frequency: 20.000 Hz
*
* Freq(Hz)	SPL(dB)	Phase(degrees)
20.000000	80.534	-46.9005
20.299999	80.699	-47.3839
20.600000	80.917	-48.1057
20.900000	81.131	-48.9394
21.200001	81.330	-49.8302
21.400000	81.452	-50.4228
21.799999	81.679	-51.5309
22.000000	81.789	-52.0250
22.400000	82.013	-52.9077
22.700001	82.191	-53.5397
23.000000	82.377	-54.2089
23.299999	82.561	-54.9523
23.600000	82.733	-55.7630
24.000000	82.936	-56.8557
24.299999	83.069	-57.5917
24.700001	83.237	-58.3776
25.000000	83.371	-58.8305
25.400000	83.572	-59.3482
25.799999	83.795	-59.9103
26.200001	84.025	-60.5984
26.500000	84.191	-61.1877
26.900000	84.398	-62.0106
27.200001	84.546	-62.6182
27.600000	84.738	-63.4020
28.000000	84.927	-64.1794
28.500000	85.156	-65.1777
29.000000	85.370	-66.1838
29.500000	85.571	-67.1311
30.000000	85.772	-68.0000
30.400000	85.937	-68.6791
30.700001	86.063	-69.2097
31.100000	86.229	-69.9644
31.500000	86.386	-70.7622
32.000000	86.567	-71.7638
32.500000	86.737	-72.7081
33.000000	86.904	-73.5814
33.500000	87.075	-74.4232
34.000000	87.250	-75.2832
34.500000	87.421	-76.1774
35.000000	87.586	-77.0849
35.500000	87.745	-77.9775
36.000000	87.900	-78.8464
36.500000	88.055	-79.7030
37.000000	88.207	-80.5619
37.500000	88.356	-81.4265
38.200001	88.557	-82.6287
38.700001	88.695	-83.4663
39.500000	88.913	-84.7762
40.000000	89.046	-85.6009
40.599998	89.199	-86.6096
41.200001	89.341	-87.6101
41.799999	89.476	-88.5666
42.500000	89.634	-89.6413
43.099998	89.771	-90.5757
43.700001	89.902	-91.5340
44.400002	90.048	-92.6484
45.000000	90.169	-93.5870
45.500000	90.270	-94.3649
46.200001	90.408	-95.4537
46.799999	90.524	-96.3826
47.500000	90.656	-97.4631
48.200001	90.782	-98.5358
48.700001	90.869	-99.2867
49.400002	90.988	-100.3181
50.000000	91.086	-101.1998
50.799999	91.206	-102.3599
51.500000	91.305	-103.3208
52.200001	91.404	-104.2493
53.000000	91.514	-105.3337
53.799999	91.611	-106.4146
54.500000	91.690	-107.3003
55.200001	91.770	-108.1428
56.000000	91.868	-109.1061
57.000000	91.989	-110.3689
58.000000	92.092	-111.6718
59.000000	92.183	-112.8224
60.000000	92.297	-113.8707
60.799999	92.398	-114.8228
61.500000	92.475	-115.7261
62.200001	92.543	-116.6179
63.000000	92.615	-117.6016
64.000000	92.699	-118.8045
65.000000	92.776	-119.9596
66.000000	92.850	-121.0628
67.000000	92.921	-122.1326
68.000000	92.990	-123.1752
69.000000	93.056	-124.1950
70.000000	93.118	-125.2024
71.000000	93.176	-126.1994
72.000000	93.229	-127.1789
73.000000	93.279	-128.1399
74.000000	93.327	-129.0898
75.000000	93.373	-130.0279
76.199997	93.426	-131.1303
77.500000	93.483	-132.3090
78.800003	93.538	-133.4714
80.000000	93.587	-134.5247
81.199997	93.633	-135.5788
82.500000	93.677	-136.7358
83.800003	93.710	-137.9054
85.000000	93.727	-138.9702
86.199997	93.732	-139.9928
87.500000	93.728	-141.0394
88.500000	93.720	-141.7956
90.000000	93.703	-142.8429
91.199997	93.687	-143.6005
92.500000	93.670	-144.3364
93.800003	93.659	-144.9787
95.000000	93.658	-145.5010
96.199997	93.672	-146.0007
97.500000	93.699	-146.5767
98.800003	93.730	-147.2227
100.000000	93.757	-147.8764
101.500000	93.779	-148.7275
103.000000	93.791	-149.5724
104.400002	93.797	-150.3455
106.000000	93.799	-151.2183
107.500000	93.798	-152.0281
109.000000	93.795	-152.8273
110.599998	93.786	-153.6630
112.000000	93.772	-154.3738
113.800003	93.740	-155.2403
115.000000	93.712	-155.7747
117.199997	93.654	-156.6552
118.000000	93.632	-156.9357
120.599998	93.571	-157.6609
122.000000	93.556	-157.9511
124.099998	93.553	-158.3356
125.000000	93.557	-158.5015
126.500000	93.569	-158.7986
128.000000	93.586	-159.1401
131.500000	93.637	-160.1018
132.000000	93.645	-160.2542
134.000000	93.673	-160.9072
136.000000	93.696	-161.6321
138.000000	93.712	-162.4311
140.000000	93.718	-163.2944
143.000000	93.702	-164.6467
145.000000	93.665	-165.5104
147.500000	93.588	-166.4325
150.000000	93.494	-167.0942
152.500000	93.411	-167.4883
155.000000	93.361	-167.7227
157.500000	93.340	-167.9452
160.000000	93.336	-168.2487
162.500000	93.336	-168.6450
165.000000	93.336	-169.1082
167.500000	93.333	-169.6143
170.000000	93.328	-170.1440
172.500000	93.320	-170.6813
175.000000	93.313	-171.2135
177.500000	93.306	-171.7400
180.000000	93.298	-172.2768
182.500000	93.285	-172.8391
185.000000	93.270	-173.4170
187.500000	93.256	-174.0002
190.000000	93.243	-174.5953
192.500000	93.229	-175.2231
195.000000	93.209	-175.9072
197.500000	93.180	-176.6518
200.000000	93.138	-177.4418
203.000000	93.064	-178.4293
206.000000	92.952	-179.4051
209.000000	92.804	179.7733
212.000000	92.629	179.2475
214.000000	92.507	179.1075
218.000000	92.280	179.2922
220.000000	92.190	179.5474
224.000000	92.073	-179.8253
227.000000	92.031	-179.4070
230.000000	92.016	-179.1053
233.000000	92.013	-178.9411
236.000000	92.014	-178.9016
240.000000	92.011	-178.9657
243.000000	92.003	-179.0531
247.000000	91.986	-179.2099
250.000000	91.970	-179.3471
254.000000	91.944	-179.5382
258.000000	91.913	-179.7422
262.000000	91.881	-179.9490
265.000000	91.856	179.9025
269.000000	91.822	179.7085
272.000000	91.796	179.5654
276.000000	91.760	179.3870
280.000000	91.722	179.2239
285.000000	91.671	179.0280
290.000000	91.617	178.8424
295.000000	91.562	178.6883
300.000000	91.507	178.5656
304.000000	91.462	178.4834
307.000000	91.429	178.4321
311.000000	91.385	178.3752
315.000000	91.342	178.3274
320.000000	91.289	178.2845
325.000000	91.237	178.2558
330.000000	91.187	178.2359
335.000000	91.136	178.2458
340.000000	91.084	178.2919
345.000000	91.037	178.3612
350.000000	90.997	178.4216
355.000000	90.957	178.4388
360.000000	90.906	178.4409
365.000000	90.845	178.5272
370.000000	90.787	178.7278
375.000000	90.746	178.9605
382.000000	90.712	179.2195
387.000000	90.692	179.3588
395.000000	90.653	179.5753
400.000000	90.627	179.7313
406.000000	90.597	179.9215
412.000000	90.569	-179.9061
418.000000	90.542	-179.7401
425.000000	90.514	-179.5298
431.000000	90.492	-179.3409
437.000000	90.473	-179.1566
444.000000	90.451	-178.9500
450.000000	90.433	-178.7791
455.000000	90.420	-178.6372
462.000000	90.402	-178.4332
468.000000	90.390	-178.2600
475.000000	90.376	-178.0658
482.000000	90.362	-177.8718
487.000000	90.352	-177.7294
494.000000	90.340	-177.5316
500.000000	90.331	-177.3767
508.000000	90.319	-177.2026
515.000000	90.307	-177.0692
522.000000	90.291	-176.9269
530.000000	90.269	-176.7244
538.000000	90.249	-176.4729
545.000000	90.238	-176.2378
552.000000	90.231	-176.0186
560.000000	90.224	-175.7949
570.000000	90.212	-175.5297
580.000000	90.199	-175.2475
590.000000	90.187	-174.9368
600.000000	90.179	-174.6110
608.000000	90.177	-174.3559
615.000000	90.178	-174.1403
622.000000	90.179	-173.9312
630.000000	90.180	-173.6976
640.000000	90.179	-173.4160
650.000000	90.179	-173.1530
660.000000	90.178	-172.8870
670.000000	90.175	-172.5775
680.000000	90.179	-172.2280
690.000000	90.191	-171.8992
700.000000	90.203	-171.6104
710.000000	90.215	-171.3408
720.000000	90.226	-171.0716
730.000000	90.237	-170.7959
740.000000	90.249	-170.5080
750.000000	90.262	-170.2163
762.000000	90.281	-169.8806
775.000000	90.303	-169.5346
788.000000	90.326	-169.2001
800.000000	90.349	-168.8985
812.000000	90.375	-168.6053
825.000000	90.403	-168.3060
838.000000	90.428	-168.0333
850.000000	90.447	-167.7822
862.000000	90.465	-167.5072
875.000000	90.488	-167.1796
885.000000	90.509	-166.9203
900.000000	90.543	-166.5520
912.000000	90.570	-166.2908
925.000000	90.598	-166.0305
938.000000	90.624	-165.7664
950.000000	90.646	-165.5050
962.000000	90.668	-165.2243
975.000000	90.693	-164.9029
988.000000	90.721	-164.5692
1000.000000	90.749	-164.2540
1015.000000	90.788	-163.8591
1030.000000	90.829	-163.4647
1044.000000	90.869	-163.0886
1060.000000	90.918	-162.6430
1075.000000	90.970	-162.2252
1090.000000	91.027	-161.8264
1106.000000	91.092	-161.4262
1120.000000	91.150	-161.0944
1138.000000	91.229	-160.6914
1150.000000	91.283	-160.4383
1172.000000	91.385	-160.0282
1180.000000	91.421	-159.9065
1206.000000	91.524	-159.5686
1220.000000	91.569	-159.3417
1241.000000	91.637	-158.8887
1250.000000	91.667	-158.6792
1265.000000	91.715	-158.2876
1280.000000	91.771	-157.7787
1315.000000	92.000	-156.4238
1320.000000	92.040	-156.2705
1340.000000	92.208	-155.8226
1360.000000	92.373	-155.5396
1380.000000	92.533	-155.3423
1400.000000	92.689	-155.2097
1430.000000	92.912	-155.0718
1450.000000	93.062	-154.9639
1475.000000	93.260	-154.8743
1500.000000	93.467	-154.8923
1525.000000	93.675	-154.9886
1550.000000	93.887	-155.0995
1575.000000	94.112	-155.2658
1600.000000	94.351	-155.6257
1625.000000	94.586	-156.2725
1650.000000	94.791	-157.1779
1675.000000	94.943	-158.1411
1700.000000	95.067	-158.8768
1725.000000	95.206	-159.4214
1750.000000	95.369	-159.9638
1775.000000	95.551	-160.5980
1800.000000	95.744	-161.4202
1825.000000	95.928	-162.4676
1850.000000	96.088	-163.6539
1875.000000	96.231	-164.8703
1900.000000	96.367	-166.1104
1925.000000	96.498	-167.4475
1950.000000	96.613	-168.9051
1975.000000	96.709	-170.4380
2000.000000	96.789	-172.0509
2030.000000	96.847	-174.1577
2060.000000	96.836	-176.2972
2090.000000	96.767	-178.1210
2120.000000	96.695	-179.5811
2140.000000	96.655	179.5008
2180.000000	96.560	177.6667
2200.000000	96.505	176.8698
2240.000000	96.411	175.4180
2270.000000	96.331	174.2513
2300.000000	96.230	173.1464
2330.000000	96.118	172.1663
2360.000000	95.996	171.3352
2400.000000	95.837	170.4963
2430.000000	95.734	169.9654
2470.000000	95.604	169.2842
2500.000000	95.508	168.8423
2540.000000	95.388	168.3107
2580.000000	95.266	167.8964
2620.000000	95.173	167.6273
2650.000000	95.114	167.3224
2690.000000	95.011	166.8818
2720.000000	94.926	166.7119
2760.000000	94.831	166.6724
2800.000000	94.770	166.7529
2850.000000	94.752	166.6981
2900.000000	94.717	166.3230
2950.000000	94.632	166.1649
3000.000000	94.581	166.7932
3040.000000	94.674	167.5092
3070.000000	94.817	167.7336
3110.000000	95.044	167.3516
3150.000000	95.239	166.2751
3200.000000	95.393	164.5234
3250.000000	95.500	162.8542
3300.000000	95.621	161.1790
3350.000000	95.765	159.2262
3400.000000	95.899	156.8424
3450.000000	96.020	154.2391
3500.000000	96.175	151.2755
3550.000000	96.345	147.3968
3600.000000	96.441	142.4174
3650.000000	96.398	136.6121
3700.000000	96.202	130.3496
3750.000000	95.865	123.8206
3820.000000	95.193	114.0598
3870.000000	94.533	106.3441
3950.000000	93.034	92.6492
4000.000000	91.741	83.5647
4060.000000	89.770	71.6190
4120.000000	87.301	56.2174
4180.000000	84.243	32.0277
4250.000000	80.309	-12.9666
4310.000000	78.640	-59.1813
4370.000000	79.736	-97.0690
4440.000000	81.753	-121.4797
4500.000000	83.149	-130.2778
4550.000000	84.050	-133.4188
4620.000000	85.054	-134.6931
4680.000000	85.860	-133.7870
4750.000000	86.928	-131.3349
4820.000000	88.236	-128.5869
4870.000000	89.316	-127.1529
4940.000000	90.923	-126.7979
5000.000000	92.261	-128.4236
5080.000000	93.905	-132.9500
5150.000000	95.202	-138.7378
5220.000000	96.301	-146.3666
5300.000000	97.202	-157.1562
5380.000000	97.631	-169.1492
5450.000000	97.614	-179.3472
5520.000000	97.309	171.7179
5600.000000	96.757	163.4682
5700.000000	95.996	155.4425
5800.000000	95.289	148.4182
5900.000000	94.573	141.0532
6000.000000	93.665	132.9663
6080.000000	92.653	126.6026
6150.000000	91.467	122.3895
6220.000000	89.998	120.8387
6300.000000	88.132	123.2924
6400.000000	86.065	131.1415
6500.000000	84.803	140.4534
6600.000000	84.209	148.7687
6700.000000	83.935	156.0577
6800.000000	83.866	162.6816
6900.000000	83.965	168.5416
7000.000000	84.167	173.5969
7100.000000	84.434	178.1035
7200.000000	84.785	-177.7020
7300.000000	85.267	-173.7856
7400.000000	85.936	-170.4418
7500.000000	86.772	-168.4551
7620.000000	87.807	-168.8149
7750.000000	88.695	-172.5865
7880.000000	89.175	-178.5577
8000.000000	89.233	175.3618
8120.000000	88.951	169.8915
8250.000000	88.370	165.4300
8380.000000	87.598	162.6298
8500.000000	86.748	161.9136
8620.000000	85.867	163.3593
8750.000000	85.048	166.9758
8850.000000	84.590	170.7896
9000.000000	84.291	177.5811
9120.000000	84.486	-177.0350
9250.000000	85.068	-172.8193
9380.000000	85.779	-171.2013
9500.000000	86.367	-171.8113
9620.000000	86.827	-173.7460
9750.000000	87.201	-176.6319
9880.000000	87.513	179.9781
10000.000000	87.809	176.2097
10150.000000	88.199	169.6558
10300.000000	88.456	159.8229
10440.000000	88.340	147.4920
10600.000000	87.611	130.9247
10750.000000	86.337	113.9938
10900.000000	84.545	95.1022
11060.000000	82.106	70.8364
11200.000000	79.584	44.7113
11380.000000	76.334	6.3199
11500.000000	75.049	-18.0002
11720.000000	75.709	-51.2824
11800.000000	76.466	-59.2742
12060.000000	79.141	-75.0269
12200.000000	80.512	-79.7288
12410.000000	82.644	-84.2286
12500.000000	83.635	-85.9813
12650.000000	85.351	-89.7346
12800.000000	86.982	-95.9056
13150.000000	89.786	-120.2538
13200.000000	90.027	-124.4133
13400.000000	90.496	-141.7917
13600.000000	90.339	-158.4095
13800.000000	89.707	-173.2891
14000.000000	88.684	173.6914
14300.000000	86.419	158.7229
14500.000000	84.450	154.0045
14750.000000	81.875	154.0782
15000.000000	79.706	156.7852
15250.000000	77.877	160.2742
15500.000000	76.151	164.6592
15750.000000	74.376	171.5901
16000.000000	72.876	-178.0643
16250.000000	72.218	-168.5540
16500.000000	72.040	-163.5447
16750.000000	71.810	-162.4448
17000.000000	71.357	-164.4662
17250.000000	70.523	-168.9153
17500.000000	69.152	-173.8550
17750.000000	67.173	-176.2104
18000.000000	64.668	-173.0146
18250.000000	61.987	-163.4697
18500.000000	59.832	-150.5165
18750.000000	58.729	-139.8811
19000.000000	58.144	-135.3695
19250.000000	57.257	-136.6360
19500.000000	55.766	-141.1064
19750.000000	54.272	-145.0659
