* Measurement data measured by REW V5.20.13
* Source: C:\Users\starf\Downloads\Koss-Sporta-Pro-Ted_R.txt
* Format: Comma/Tab/Space delimited data
* Dated: Aug 12, 2023 5:29:54 PM
* REW Settings:
*  C-weighting compensation: Off
*  Target level: 75.0 dB
* Note: ; Measurement imported from C:\Users\starf\Downloads\Koss-Sporta-Pro-Ted_R.txt Format: Comma/Tab/Space delimited data 480 values loaded, 20 Hz to 19,753 Hz log spaced 
* Measurement: Koss-Sporta-Pro-Ted_R
* Smoothing: 1/24 octave
* Frequency Step: 1/48 octave
* Start Frequency: 20.000 Hz
*
* Freq(Hz)	SPL(dB)	Phase(degrees)
20.000000	76.403	-34.2460
20.299999	76.394	-33.2101
20.600000	76.471	-31.4841
20.900000	76.687	-29.5635
21.200001	77.030	-27.9435
21.400000	77.299	-27.2292
21.799999	77.849	-26.7531
22.000000	78.096	-26.9241
22.400000	78.494	-27.7361
22.700001	78.716	-28.3555
23.000000	78.904	-28.7325
23.299999	79.104	-28.8355
23.600000	79.351	-28.8385
24.000000	79.760	-29.1286
24.299999	80.091	-29.9004
24.700001	80.487	-31.8265
25.000000	80.696	-33.7550
25.400000	80.826	-36.4031
25.799999	80.827	-38.3887
26.200001	80.810	-39.2996
26.500000	80.867	-39.4160
26.900000	81.085	-39.4121
27.200001	81.328	-39.7520
27.600000	81.665	-40.9440
28.000000	81.925	-42.6783
28.500000	82.129	-44.6165
29.000000	82.337	-45.6109
29.500000	82.675	-46.2262
30.000000	83.085	-47.4936
30.400000	83.353	-49.0921
30.700001	83.485	-50.3367
31.100000	83.594	-51.5947
31.500000	83.701	-52.1857
32.000000	83.929	-52.4062
32.500000	84.249	-52.8902
33.000000	84.548	-54.0189
33.500000	84.758	-55.3771
34.000000	84.912	-56.4613
34.500000	85.069	-57.2537
35.000000	85.241	-58.0055
35.500000	85.410	-58.7940
36.000000	85.577	-59.5198
36.500000	85.766	-60.2170
37.000000	85.974	-61.0933
37.500000	86.162	-62.2236
38.200001	86.356	-63.8091
38.700001	86.486	-64.6394
39.500000	86.757	-65.7227
40.000000	86.945	-66.5939
40.599998	87.144	-67.8254
41.200001	87.308	-68.9809
41.799999	87.464	-69.9639
42.500000	87.650	-71.0090
43.099998	87.809	-71.8748
43.700001	87.968	-72.7142
44.400002	88.161	-73.7129
45.000000	88.325	-74.6321
45.500000	88.458	-75.4324
46.200001	88.643	-76.5842
46.799999	88.799	-77.6299
47.500000	88.967	-78.9128
48.200001	89.115	-80.1439
48.700001	89.216	-80.9308
49.400002	89.365	-81.9255
50.000000	89.499	-82.7348
50.799999	89.684	-83.7865
51.500000	89.851	-84.7344
52.200001	90.011	-85.7954
53.000000	90.159	-87.0841
53.799999	90.280	-88.2714
54.500000	90.387	-89.2434
55.200001	90.499	-90.2669
56.000000	90.627	-91.5480
57.000000	90.777	-93.3711
58.000000	90.870	-95.3365
59.000000	90.922	-96.7678
60.000000	91.056	-97.6461
60.799999	91.224	-98.5207
61.500000	91.363	-99.5090
62.200001	91.477	-100.5166
63.000000	91.591	-101.5709
64.000000	91.724	-102.8231
65.000000	91.841	-104.0606
66.000000	91.942	-105.3186
67.000000	92.021	-106.5946
68.000000	92.087	-107.7323
69.000000	92.175	-108.7945
70.000000	92.276	-109.9892
71.000000	92.361	-111.2444
72.000000	92.437	-112.4265
73.000000	92.515	-113.5759
74.000000	92.585	-114.7268
75.000000	92.647	-115.8426
76.199997	92.717	-117.1433
77.500000	92.786	-118.5371
78.800003	92.849	-119.8921
80.000000	92.900	-121.1238
81.199997	92.942	-122.2960
82.500000	92.991	-123.4989
83.800003	93.045	-124.7070
85.000000	93.096	-125.8568
86.199997	93.141	-127.0283
87.500000	93.180	-128.2533
88.500000	93.208	-129.1607
90.000000	93.240	-130.5368
91.199997	93.245	-131.6167
92.500000	93.234	-132.6884
93.800003	93.221	-133.6969
95.000000	93.202	-134.6035
96.199997	93.178	-135.4215
97.500000	93.158	-136.1556
98.800003	93.159	-136.7706
100.000000	93.179	-137.3053
101.500000	93.219	-137.9951
103.000000	93.271	-138.7460
104.400002	93.322	-139.5567
106.000000	93.372	-140.6557
107.500000	93.396	-141.8185
109.000000	93.392	-143.0004
110.599998	93.361	-144.1650
112.000000	93.315	-145.0614
113.800003	93.235	-146.0221
115.000000	93.178	-146.5464
117.199997	93.088	-147.3853
118.000000	93.061	-147.6655
120.599998	93.017	-148.3984
122.000000	93.033	-148.7277
124.099998	93.083	-149.2894
125.000000	93.100	-149.5610
126.500000	93.117	-150.0381
128.000000	93.125	-150.5382
131.500000	93.138	-151.7683
132.000000	93.141	-151.9516
134.000000	93.156	-152.7067
136.000000	93.160	-153.4676
138.000000	93.150	-154.1881
140.000000	93.133	-154.8472
143.000000	93.110	-155.7457
145.000000	93.095	-156.3223
147.500000	93.070	-157.0538
150.000000	93.043	-157.8066
152.500000	93.019	-158.5552
155.000000	93.001	-159.2600
157.500000	92.987	-159.9086
160.000000	92.971	-160.5347
162.500000	92.946	-161.1682
165.000000	92.906	-161.7967
167.500000	92.857	-162.3698
170.000000	92.812	-162.8775
172.500000	92.777	-163.3651
175.000000	92.747	-163.8270
177.500000	92.721	-164.2461
180.000000	92.697	-164.6379
182.500000	92.669	-165.0007
185.000000	92.632	-165.3229
187.500000	92.592	-165.6313
190.000000	92.558	-165.9554
192.500000	92.532	-166.2766
195.000000	92.507	-166.5542
197.500000	92.479	-166.7849
200.000000	92.456	-167.0001
203.000000	92.446	-167.2280
206.000000	92.453	-167.4172
209.000000	92.450	-167.6839
212.000000	92.428	-168.0413
214.000000	92.418	-168.2704
218.000000	92.426	-168.6823
220.000000	92.436	-168.9145
224.000000	92.445	-169.5209
227.000000	92.437	-170.0739
230.000000	92.423	-170.6424
233.000000	92.406	-171.1807
236.000000	92.385	-171.6797
240.000000	92.341	-172.2880
243.000000	92.302	-172.7180
247.000000	92.243	-173.2852
250.000000	92.193	-173.6912
254.000000	92.123	-174.1664
258.000000	92.053	-174.5681
262.000000	91.976	-174.9479
265.000000	91.920	-175.2025
269.000000	91.854	-175.4626
272.000000	91.804	-175.6164
276.000000	91.733	-175.8097
280.000000	91.665	-175.9727
285.000000	91.586	-176.0830
290.000000	91.506	-176.1397
295.000000	91.432	-176.1824
300.000000	91.362	-176.2040
304.000000	91.305	-176.2060
307.000000	91.265	-176.1991
311.000000	91.219	-176.1682
315.000000	91.186	-176.1033
320.000000	91.151	-176.0262
325.000000	91.109	-176.0196
330.000000	91.064	-176.0058
335.000000	91.031	-175.9424
340.000000	91.006	-175.8788
345.000000	90.979	-175.8374
350.000000	90.950	-175.8222
355.000000	90.919	-175.8220
360.000000	90.888	-175.8164
365.000000	90.859	-175.8012
370.000000	90.831	-175.7914
375.000000	90.800	-175.7810
382.000000	90.754	-175.7493
387.000000	90.721	-175.7110
395.000000	90.671	-175.6079
400.000000	90.643	-175.5225
406.000000	90.613	-175.4376
412.000000	90.584	-175.3788
418.000000	90.552	-175.3329
425.000000	90.508	-175.2506
431.000000	90.463	-175.1169
437.000000	90.418	-174.9270
444.000000	90.375	-174.6901
450.000000	90.343	-174.4939
455.000000	90.321	-174.3238
462.000000	90.297	-174.0746
468.000000	90.280	-173.8670
475.000000	90.257	-173.6383
482.000000	90.234	-173.4133
487.000000	90.220	-173.2601
494.000000	90.201	-173.0692
500.000000	90.186	-172.9102
508.000000	90.165	-172.6648
515.000000	90.145	-172.4101
522.000000	90.127	-172.1303
530.000000	90.112	-171.8036
538.000000	90.104	-171.5028
545.000000	90.100	-171.2700
552.000000	90.096	-171.0523
560.000000	90.092	-170.8089
570.000000	90.087	-170.5149
580.000000	90.080	-170.2449
590.000000	90.073	-169.9899
600.000000	90.063	-169.7383
608.000000	90.052	-169.5218
615.000000	90.039	-169.3014
622.000000	90.026	-169.0455
630.000000	90.012	-168.7158
640.000000	90.006	-168.2751
650.000000	90.012	-167.8534
660.000000	90.023	-167.4821
670.000000	90.034	-167.1406
680.000000	90.043	-166.8066
690.000000	90.052	-166.4765
700.000000	90.062	-166.1441
710.000000	90.072	-165.8094
720.000000	90.083	-165.4820
730.000000	90.097	-165.1609
740.000000	90.112	-164.8488
750.000000	90.127	-164.5521
762.000000	90.144	-164.2025
775.000000	90.160	-163.7981
788.000000	90.184	-163.3846
800.000000	90.210	-163.0309
812.000000	90.235	-162.7012
825.000000	90.260	-162.3589
838.000000	90.282	-162.0216
850.000000	90.301	-161.7123
862.000000	90.320	-161.3981
875.000000	90.338	-161.0510
885.000000	90.351	-160.7714
900.000000	90.372	-160.3236
912.000000	90.395	-159.9536
925.000000	90.423	-159.5576
938.000000	90.451	-159.1720
950.000000	90.476	-158.8259
962.000000	90.501	-158.4848
975.000000	90.529	-158.1054
988.000000	90.560	-157.7159
1000.000000	90.590	-157.3618
1015.000000	90.627	-156.9259
1030.000000	90.663	-156.4857
1044.000000	90.696	-156.0740
1060.000000	90.731	-155.6048
1075.000000	90.760	-155.1479
1090.000000	90.784	-154.6060
1106.000000	90.819	-153.8832
1120.000000	90.875	-153.2132
1138.000000	90.972	-152.4884
1150.000000	91.036	-152.1160
1172.000000	91.139	-151.5296
1180.000000	91.172	-151.3006
1206.000000	91.283	-150.4415
1220.000000	91.353	-149.9572
1241.000000	91.469	-149.2995
1250.000000	91.519	-149.0509
1265.000000	91.603	-148.6577
1280.000000	91.684	-148.2520
1315.000000	91.877	-147.2053
1320.000000	91.906	-147.0512
1340.000000	92.031	-146.4383
1360.000000	92.168	-145.8453
1380.000000	92.319	-145.2844
1400.000000	92.484	-144.8091
1430.000000	92.736	-144.3215
1450.000000	92.896	-144.1020
1475.000000	93.087	-143.8674
1500.000000	93.273	-143.6382
1525.000000	93.460	-143.4237
1550.000000	93.651	-143.2104
1575.000000	93.854	-143.0023
1600.000000	94.072	-142.8896
1625.000000	94.288	-142.9019
1650.000000	94.499	-142.9732
1675.000000	94.711	-143.0626
1700.000000	94.930	-143.1766
1725.000000	95.160	-143.3697
1750.000000	95.400	-143.6849
1775.000000	95.645	-144.1548
1800.000000	95.885	-144.8091
1825.000000	96.106	-145.6088
1850.000000	96.309	-146.4506
1875.000000	96.512	-147.3030
1900.000000	96.720	-148.2909
1925.000000	96.915	-149.4847
1950.000000	97.081	-150.8153
1975.000000	97.216	-152.1660
2000.000000	97.334	-153.4613
2030.000000	97.471	-155.0189
2060.000000	97.590	-156.7140
2090.000000	97.669	-158.4610
2120.000000	97.716	-160.1252
2140.000000	97.737	-161.1899
2180.000000	97.754	-163.2315
2200.000000	97.754	-164.1658
2240.000000	97.761	-165.9531
2270.000000	97.761	-167.4346
2300.000000	97.723	-168.9972
2330.000000	97.642	-170.4371
2360.000000	97.529	-171.6481
2400.000000	97.363	-172.7841
2430.000000	97.265	-173.3727
2470.000000	97.166	-174.1854
2500.000000	97.091	-174.8139
2540.000000	96.980	-175.6053
2580.000000	96.849	-176.2954
2620.000000	96.695	-176.6980
2650.000000	96.591	-176.6970
2690.000000	96.510	-176.4330
2720.000000	96.506	-176.3265
2760.000000	96.522	-176.6207
2800.000000	96.489	-177.2118
2850.000000	96.375	-177.7233
2900.000000	96.239	-177.7736
2950.000000	96.122	-177.2714
3000.000000	96.087	-176.2737
3040.000000	96.149	-175.4267
3070.000000	96.239	-174.9413
3110.000000	96.395	-174.5709
3150.000000	96.568	-174.5117
3200.000000	96.781	-174.7502
3250.000000	97.007	-175.1040
3300.000000	97.268	-175.6624
3350.000000	97.574	-176.5236
3400.000000	97.920	-177.8438
3450.000000	98.298	-179.7156
3500.000000	98.714	177.7291
3550.000000	99.155	174.1301
3600.000000	99.549	169.0820
3650.000000	99.793	162.5840
3700.000000	99.820	155.0998
3750.000000	99.622	147.1053
3820.000000	98.982	135.4821
3870.000000	98.248	127.0535
3950.000000	96.538	113.7187
4000.000000	95.072	106.1145
4060.000000	92.789	99.5027
4120.000000	89.851	99.3127
4180.000000	86.250	111.0226
4250.000000	82.049	141.2478
4310.000000	80.841	171.6946
4370.000000	82.313	-165.1329
4440.000000	84.537	-150.8191
4500.000000	85.995	-145.6008
4550.000000	86.881	-143.2554
4620.000000	87.872	-140.0649
4680.000000	88.716	-136.8373
4750.000000	89.775	-133.1217
4820.000000	90.978	-129.6120
4870.000000	91.985	-127.5593
4940.000000	93.510	-126.4194
5000.000000	94.758	-127.6233
5080.000000	96.200	-131.8216
5150.000000	97.236	-137.0702
5220.000000	98.066	-143.3260
5300.000000	98.750	-151.3693
5380.000000	99.119	-159.8821
5450.000000	99.179	-166.9902
5520.000000	99.055	-173.1344
5600.000000	98.813	-178.7592
5700.000000	98.539	175.6475
5800.000000	98.375	170.3214
5900.000000	98.223	164.0947
6000.000000	97.910	156.8267
6080.000000	97.461	150.6145
6150.000000	96.867	145.4080
6220.000000	96.071	141.1317
6300.000000	94.977	138.0973
6400.000000	93.539	136.9410
6500.000000	92.179	137.8411
6600.000000	90.911	140.5444
6700.000000	89.784	145.2160
6800.000000	88.945	151.4763
6900.000000	88.520	158.2802
7000.000000	88.494	164.4774
7100.000000	88.743	169.3180
7200.000000	89.121	172.5182
7300.000000	89.522	174.2120
7400.000000	89.901	174.6098
7500.000000	90.212	173.6816
7620.000000	90.376	171.0142
7750.000000	90.179	167.3414
7880.000000	89.571	164.6129
8000.000000	88.739	164.4500
8120.000000	87.889	166.8869
8250.000000	87.168	171.1554
8380.000000	86.622	176.3851
8500.000000	86.306	-177.5462
8620.000000	86.338	-170.8088
8750.000000	86.788	-164.2605
8850.000000	87.327	-160.4363
9000.000000	88.270	-156.9648
9120.000000	89.043	-156.1563
9250.000000	89.793	-157.3943
9380.000000	90.298	-160.5950
9500.000000	90.455	-164.2234
9620.000000	90.357	-167.1773
9750.000000	90.128	-168.9000
9880.000000	89.943	-169.3467
10000.000000	89.909	-169.3448
10150.000000	90.062	-169.8977
10300.000000	90.305	-172.2629
10440.000000	90.406	-176.5538
10600.000000	90.135	177.1306
10750.000000	89.445	171.8370
10900.000000	88.423	168.5828
11060.000000	87.117	168.0162
11200.000000	85.918	170.3107
11380.000000	84.536	176.9514
11500.000000	83.917	-176.6810
11720.000000	83.880	-163.0285
11800.000000	84.298	-158.5244
12060.000000	86.504	-149.9871
12200.000000	87.626	-150.7169
12410.000000	88.821	-157.0522
12500.000000	89.149	-160.6218
12650.000000	89.471	-166.9182
12800.000000	89.551	-173.0858
13150.000000	89.151	174.2085
13200.000000	89.056	172.6036
13400.000000	88.608	166.6185
13600.000000	88.064	160.7896
13800.000000	87.401	154.8339
14000.000000	86.590	148.1633
14300.000000	84.824	136.8764
14500.000000	82.872	133.2762
14750.000000	79.449	142.2355
15000.000000	76.686	160.8904
15250.000000	76.022	174.5172
15500.000000	75.969	-179.4936
15750.000000	75.456	-175.9992
16000.000000	74.642	-170.2495
16250.000000	74.268	-162.8637
16500.000000	74.599	-158.9460
16750.000000	75.023	-162.1561
17000.000000	74.918	-172.1713
17250.000000	73.966	174.0718
17500.000000	72.078	160.1061
17750.000000	69.335	144.6422
18000.000000	65.874	110.3092
18250.000000	61.806	48.1806
18500.000000	57.932	-8.1267
18750.000000	57.732	-68.0325
19000.000000	60.709	-56.8704
19250.000000	63.617	-63.1165
19500.000000	65.646	-80.3754
19750.000000	66.639	-88.3630
