* Measurement data measured by REW V5.20.13
* Source: RMS Average 1 Filtered
* Format: 
* Dated: Sep 9, 2023 10:55:50 PM
* REW Settings:
*  C-weighting compensation: Off
*  Target level: 75.0 dB
* Note: 
* Measurement: EQ RMS Average 1
* Smoothing: 1/24 octave
* Frequency Step: 1/48 octave
* Start Frequency: 20.000 Hz
*
* Freq(Hz)	SPL(dB)
20.000000	1.616
20.299999	1.587
20.600000	1.549
20.900000	1.512
21.200001	1.476
21.400000	1.453
21.799999	1.410
22.000000	1.389
22.400000	1.350
22.700001	1.322
23.000000	1.296
23.299999	1.271
23.600000	1.247
24.000000	1.217
24.299999	1.196
24.700001	1.169
25.000000	1.150
25.400000	1.127
25.799999	1.104
26.200001	1.083
26.500000	1.068
26.900000	1.049
27.200001	1.036
27.600000	1.018
28.000000	1.002
28.500000	0.983
29.000000	0.965
29.500000	0.948
30.000000	0.933
30.400000	0.921
30.700001	0.912
31.100000	0.901
31.500000	0.890
32.000000	0.878
32.500000	0.866
33.000000	0.854
33.500000	0.843
34.000000	0.833
34.500000	0.823
35.000000	0.814
35.500000	0.804
36.000000	0.796
36.500000	0.787
37.000000	0.779
37.500000	0.771
38.200001	0.761
38.700001	0.753
39.500000	0.742
40.000000	0.736
40.599998	0.728
41.200001	0.720
41.799999	0.713
42.500000	0.705
43.099998	0.698
43.700001	0.691
44.400002	0.683
45.000000	0.677
45.500000	0.672
46.200001	0.665
46.799999	0.659
47.500000	0.652
48.200001	0.646
48.700001	0.641
49.400002	0.635
50.000000	0.629
50.799999	0.622
51.500000	0.616
52.200001	0.610
53.000000	0.604
53.799999	0.597
54.500000	0.591
55.200001	0.586
56.000000	0.580
57.000000	0.572
58.000000	0.564
59.000000	0.557
60.000000	0.550
60.799999	0.544
61.500000	0.539
62.200001	0.534
63.000000	0.528
64.000000	0.522
65.000000	0.515
66.000000	0.508
67.000000	0.501
68.000000	0.495
69.000000	0.488
70.000000	0.482
71.000000	0.476
72.000000	0.469
73.000000	0.463
74.000000	0.457
75.000000	0.451
76.199997	0.444
77.500000	0.436
78.800003	0.428
80.000000	0.421
81.199997	0.414
82.500000	0.407
83.800003	0.400
85.000000	0.393
86.199997	0.387
87.500000	0.380
88.500000	0.374
90.000000	0.366
91.199997	0.360
92.500000	0.353
93.800003	0.347
95.000000	0.341
96.199997	0.335
97.500000	0.329
98.800003	0.322
100.000000	0.317
101.500000	0.309
103.000000	0.302
104.400002	0.296
106.000000	0.289
107.500000	0.282
109.000000	0.276
110.599998	0.269
112.000000	0.263
113.800003	0.255
115.000000	0.250
117.199997	0.241
118.000000	0.238
120.599998	0.228
122.000000	0.222
124.099998	0.214
125.000000	0.211
126.500000	0.205
128.000000	0.200
131.500000	0.187
132.000000	0.185
134.000000	0.179
136.000000	0.172
138.000000	0.165
140.000000	0.158
143.000000	0.149
145.000000	0.143
147.500000	0.135
150.000000	0.127
152.500000	0.120
155.000000	0.113
157.500000	0.106
160.000000	0.099
162.500000	0.092
165.000000	0.086
167.500000	0.079
170.000000	0.073
172.500000	0.067
175.000000	0.061
177.500000	0.055
180.000000	0.049
182.500000	0.043
185.000000	0.037
187.500000	0.032
190.000000	0.027
192.500000	0.021
195.000000	0.016
197.500000	0.011
200.000000	0.006
203.000000	-0.000
206.000000	-0.006
209.000000	-0.012
212.000000	-0.017
214.000000	-0.021
218.000000	-0.028
220.000000	-0.031
224.000000	-0.038
227.000000	-0.043
230.000000	-0.048
233.000000	-0.053
236.000000	-0.058
240.000000	-0.065
243.000000	-0.069
247.000000	-0.075
250.000000	-0.080
254.000000	-0.086
258.000000	-0.091
262.000000	-0.097
265.000000	-0.101
269.000000	-0.106
272.000000	-0.110
276.000000	-0.116
280.000000	-0.121
285.000000	-0.127
290.000000	-0.133
295.000000	-0.139
300.000000	-0.145
304.000000	-0.150
307.000000	-0.153
311.000000	-0.158
315.000000	-0.162
320.000000	-0.167
325.000000	-0.173
330.000000	-0.178
335.000000	-0.183
340.000000	-0.188
345.000000	-0.192
350.000000	-0.197
355.000000	-0.201
360.000000	-0.206
365.000000	-0.210
370.000000	-0.214
375.000000	-0.218
382.000000	-0.224
387.000000	-0.227
395.000000	-0.233
400.000000	-0.236
406.000000	-0.240
412.000000	-0.244
418.000000	-0.247
425.000000	-0.251
431.000000	-0.254
437.000000	-0.256
444.000000	-0.259
450.000000	-0.262
455.000000	-0.263
462.000000	-0.265
468.000000	-0.267
475.000000	-0.268
482.000000	-0.269
487.000000	-0.270
494.000000	-0.270
500.000000	-0.270
508.000000	-0.270
515.000000	-0.270
522.000000	-0.269
530.000000	-0.267
538.000000	-0.265
545.000000	-0.263
552.000000	-0.260
560.000000	-0.257
570.000000	-0.252
580.000000	-0.246
590.000000	-0.240
600.000000	-0.233
608.000000	-0.226
615.000000	-0.220
622.000000	-0.214
630.000000	-0.207
640.000000	-0.197
650.000000	-0.186
660.000000	-0.174
670.000000	-0.162
680.000000	-0.149
690.000000	-0.136
700.000000	-0.122
710.000000	-0.107
720.000000	-0.092
730.000000	-0.076
740.000000	-0.060
750.000000	-0.043
762.000000	-0.022
775.000000	0.001
788.000000	0.025
800.000000	0.047
812.000000	0.070
825.000000	0.094
838.000000	0.119
850.000000	0.142
862.000000	0.164
875.000000	0.188
885.000000	0.205
900.000000	0.230
912.000000	0.249
925.000000	0.267
938.000000	0.282
950.000000	0.294
962.000000	0.303
975.000000	0.310
988.000000	0.313
1000.000000	0.312
1015.000000	0.305
1030.000000	0.292
1044.000000	0.274
1060.000000	0.247
1075.000000	0.214
1090.000000	0.176
1106.000000	0.130
1120.000000	0.084
1138.000000	0.021
1150.000000	-0.024
1172.000000	-0.111
1180.000000	-0.143
1206.000000	-0.248
1220.000000	-0.305
1241.000000	-0.387
1250.000000	-0.421
1265.000000	-0.475
1280.000000	-0.528
1315.000000	-0.638
1320.000000	-0.652
1340.000000	-0.706
1360.000000	-0.755
1380.000000	-0.798
1400.000000	-0.837
1430.000000	-0.887
1450.000000	-0.916
1475.000000	-0.948
1500.000000	-0.975
1525.000000	-0.999
1550.000000	-1.020
1575.000000	-1.039
1600.000000	-1.055
1625.000000	-1.070
1650.000000	-1.083
1675.000000	-1.096
1700.000000	-1.107
1725.000000	-1.118
1750.000000	-1.128
1775.000000	-1.138
1800.000000	-1.147
1825.000000	-1.156
1850.000000	-1.165
1875.000000	-1.173
1900.000000	-1.181
1925.000000	-1.190
1950.000000	-1.198
1975.000000	-1.206
2000.000000	-1.214
2030.000000	-1.224
2060.000000	-1.233
2090.000000	-1.243
2120.000000	-1.253
2140.000000	-1.259
2180.000000	-1.272
2200.000000	-1.277
2240.000000	-1.288
2270.000000	-1.295
2300.000000	-1.300
2330.000000	-1.303
2360.000000	-1.305
2400.000000	-1.302
2430.000000	-1.296
2470.000000	-1.283
2500.000000	-1.269
2540.000000	-1.244
2580.000000	-1.213
2620.000000	-1.177
2650.000000	-1.147
2690.000000	-1.103
2720.000000	-1.068
2760.000000	-1.019
2800.000000	-0.970
2850.000000	-0.908
2900.000000	-0.847
2950.000000	-0.789
3000.000000	-0.734
3040.000000	-0.693
3070.000000	-0.663
3110.000000	-0.626
3150.000000	-0.591
3200.000000	-0.550
3250.000000	-0.511
3300.000000	-0.475
3350.000000	-0.440
3400.000000	-0.406
3450.000000	-0.374
3500.000000	-0.343
3550.000000	-0.313
3600.000000	-0.285
3650.000000	-0.258
3700.000000	-0.233
3750.000000	-0.209
3820.000000	-0.179
3870.000000	-0.160
3950.000000	-0.132
4000.000000	-0.117
4060.000000	-0.101
4120.000000	-0.088
4180.000000	-0.076
4250.000000	-0.063
4310.000000	-0.054
4370.000000	-0.047
4440.000000	-0.038
4500.000000	-0.032
4550.000000	-0.027
4620.000000	-0.021
4680.000000	-0.016
4750.000000	-0.010
4820.000000	-0.004
4870.000000	0.000
4940.000000	0.007
5000.000000	0.013
5080.000000	0.023
5150.000000	0.033
5220.000000	0.045
5300.000000	0.061
5380.000000	0.080
5450.000000	0.099
5520.000000	0.121
5600.000000	0.149
5700.000000	0.190
5800.000000	0.235
5900.000000	0.285
6000.000000	0.339
6080.000000	0.384
6150.000000	0.425
6220.000000	0.466
6300.000000	0.515
6400.000000	0.575
6500.000000	0.637
6600.000000	0.698
6700.000000	0.760
6800.000000	0.821
6900.000000	0.882
7000.000000	0.942
7100.000000	1.003
7200.000000	1.063
7300.000000	1.123
7400.000000	1.184
7500.000000	1.244
7620.000000	1.317
7750.000000	1.396
7880.000000	1.476
8000.000000	1.551
8120.000000	1.627
8250.000000	1.711
8380.000000	1.797
8500.000000	1.878
8620.000000	1.960
8750.000000	2.052
8850.000000	2.124
9000.000000	2.235
9120.000000	2.326
9250.000000	2.429
9380.000000	2.539
9500.000000	2.653
9620.000000	2.782
9750.000000	2.945
9880.000000	3.128
10000.000000	3.315
10150.000000	3.571
10300.000000	3.857
10440.000000	4.154
10600.000000	4.530
10750.000000	4.912
10900.000000	5.300
11060.000000	5.679
11200.000000	5.940
11380.000000	6.131
11500.000000	6.160
11720.000000	6.024
11800.000000	5.926
12060.000000	5.516
12200.000000	5.282
12410.000000	4.956
12500.000000	4.828
12650.000000	4.631
12800.000000	4.456
13150.000000	4.175
13200.000000	4.154
13400.000000	4.118
13600.000000	4.144
13800.000000	4.189
14000.000000	4.215
14300.000000	4.166
14500.000000	4.060
14750.000000	3.845
15000.000000	3.543
15250.000000	3.162
15500.000000	2.711
15750.000000	2.204
16000.000000	1.652
16250.000000	1.069
16500.000000	0.469
16750.000000	-0.134
17000.000000	-0.723
17250.000000	-1.280
17500.000000	-1.781
17750.000000	-2.197
18000.000000	-2.487
18250.000000	-2.597
18500.000000	-2.466
18750.000000	-2.066
19000.000000	-1.541
19250.000000	-1.373
19500.000000	-2.221
19750.000000	-4.264
20000.000000	-6.537
