* Measurement data measured by REW V5.20.13
* Source: EXCL: Headset (KM-HIFI-384KHZ), MICROPHONE (Master Volume), 0, volume: 1.000
* Format: 256k Log Swept Sine, 1 sweep at -20.0 dBFS with no timing reference
* Dated: Nov 12, 2023 11:07:40 PM
* REW Settings:
*  C-weighting compensation: Off
*  Target level: 75.0 dB
* Note: ; 
* Measurement: Kinera Freya Show R
* Smoothing: 1/24 octave
* Frequency Step: 1/48 octave
* Start Frequency: 20.000 Hz
*
* Freq(Hz)	SPL(dB)	Phase(degrees)
20.000000	100.917	10.0792
20.299999	100.919	9.6126
20.600000	100.919	9.1438
20.900000	100.918	8.6787
21.200001	100.914	8.2256
21.400000	100.911	7.9336
21.799999	100.905	7.3740
22.000000	100.902	7.1047
22.400000	100.897	6.5802
22.700001	100.894	6.1934
23.000000	100.891	5.8098
23.299999	100.887	5.4320
23.600000	100.883	5.0629
24.000000	100.876	4.5871
24.299999	100.872	4.2411
24.700001	100.866	3.7881
25.000000	100.861	3.4503
25.400000	100.855	3.0010
25.799999	100.846	2.5583
26.200001	100.835	2.1305
26.500000	100.827	1.8217
26.900000	100.816	1.4235
27.200001	100.809	1.1307
27.600000	100.801	0.7418
28.000000	100.792	0.3504
28.500000	100.781	-0.1406
29.000000	100.767	-0.6249
29.500000	100.752	-1.0940
30.000000	100.736	-1.5433
30.400000	100.724	-1.8898
30.700001	100.715	-2.1440
31.100000	100.704	-2.4790
31.500000	100.694	-2.8118
32.000000	100.680	-3.2251
32.500000	100.666	-3.6328
33.000000	100.651	-4.0321
33.500000	100.635	-4.4237
34.000000	100.619	-4.8077
34.500000	100.602	-5.1817
35.000000	100.584	-5.5438
35.500000	100.568	-5.8975
36.000000	100.552	-6.2494
36.500000	100.536	-6.6030
37.000000	100.518	-6.9548
37.500000	100.501	-7.2988
38.200001	100.476	-7.7659
38.700001	100.459	-8.0947
39.500000	100.432	-8.6167
40.000000	100.414	-8.9344
40.599998	100.392	-9.3033
41.200001	100.371	-9.6616
41.799999	100.349	-10.0113
42.500000	100.324	-10.4052
43.099998	100.303	-10.7319
43.700001	100.283	-11.0561
44.400002	100.260	-11.4366
45.000000	100.240	-11.7622
45.500000	100.222	-12.0310
46.200001	100.198	-12.4044
46.799999	100.178	-12.7228
47.500000	100.154	-13.0902
48.200001	100.130	-13.4545
48.700001	100.112	-13.7144
49.400002	100.087	-14.0757
50.000000	100.065	-14.3773
50.799999	100.035	-14.7639
51.500000	100.008	-15.0919
52.200001	99.982	-15.4155
53.000000	99.952	-15.7826
53.799999	99.921	-16.1442
54.500000	99.893	-16.4543
55.200001	99.867	-16.7607
56.000000	99.837	-17.1111
57.000000	99.799	-17.5522
58.000000	99.762	-17.9916
59.000000	99.724	-18.4216
60.000000	99.685	-18.8360
60.799999	99.654	-19.1537
61.500000	99.627	-19.4249
62.200001	99.598	-19.6890
63.000000	99.565	-19.9786
64.000000	99.522	-20.3276
65.000000	99.480	-20.6632
66.000000	99.439	-20.9911
67.000000	99.398	-21.3168
68.000000	99.359	-21.6339
69.000000	99.321	-21.9475
70.000000	99.285	-22.2484
71.000000	99.251	-22.5486
72.000000	99.216	-22.8496
73.000000	99.182	-23.1458
74.000000	99.148	-23.4532
75.000000	99.113	-23.7632
76.199997	99.072	-24.1487
77.500000	99.027	-24.5767
78.800003	98.983	-25.0002
80.000000	98.941	-25.3880
81.199997	98.898	-25.7613
82.500000	98.850	-26.1594
83.800003	98.799	-26.5366
85.000000	98.752	-26.8739
86.199997	98.704	-27.2059
87.500000	98.652	-27.5568
88.500000	98.613	-27.8246
90.000000	98.554	-28.2131
91.199997	98.507	-28.5103
92.500000	98.457	-28.8260
93.800003	98.405	-29.1340
95.000000	98.358	-29.4119
96.199997	98.311	-29.6881
97.500000	98.260	-29.9815
98.800003	98.209	-30.2644
100.000000	98.162	-30.5189
101.500000	98.102	-30.8288
103.000000	98.042	-31.1282
104.400002	97.987	-31.4039
106.000000	97.924	-31.7188
107.500000	97.864	-32.0035
109.000000	97.804	-32.2738
110.599998	97.741	-32.5504
112.000000	97.684	-32.7837
113.800003	97.610	-33.0718
115.000000	97.561	-33.2540
117.199997	97.469	-33.5649
118.000000	97.436	-33.6703
120.599998	97.326	-33.9764
122.000000	97.267	-34.1115
124.099998	97.178	-34.2680
125.000000	97.141	-34.3168
126.500000	97.081	-34.3706
128.000000	97.024	-34.3884
131.500000	96.914	-34.2979
132.000000	96.902	-34.2743
134.000000	96.868	-34.1843
136.000000	96.853	-34.1527
138.000000	96.852	-34.2324
140.000000	96.854	-34.4452
143.000000	96.842	-34.9678
145.000000	96.820	-35.3837
147.500000	96.776	-35.9090
150.000000	96.721	-36.4054
152.500000	96.658	-36.8674
155.000000	96.591	-37.2988
157.500000	96.521	-37.6921
160.000000	96.450	-38.0378
162.500000	96.383	-38.3400
165.000000	96.321	-38.6273
167.500000	96.263	-38.9258
170.000000	96.204	-39.2433
172.500000	96.143	-39.5717
175.000000	96.078	-39.8993
177.500000	96.009	-40.2204
180.000000	95.939	-40.5294
182.500000	95.869	-40.8165
185.000000	95.799	-41.0789
187.500000	95.729	-41.3235
190.000000	95.659	-41.5553
192.500000	95.591	-41.7746
195.000000	95.524	-41.9797
197.500000	95.459	-42.1764
200.000000	95.394	-42.3716
203.000000	95.317	-42.6008
206.000000	95.242	-42.8213
209.000000	95.167	-43.0355
212.000000	95.091	-43.2417
214.000000	95.041	-43.3729
218.000000	94.942	-43.6213
220.000000	94.892	-43.7399
224.000000	94.795	-43.9631
227.000000	94.723	-44.1193
230.000000	94.652	-44.2662
233.000000	94.582	-44.4047
236.000000	94.512	-44.5356
240.000000	94.421	-44.7007
243.000000	94.354	-44.8163
247.000000	94.266	-44.9603
250.000000	94.200	-45.0603
254.000000	94.113	-45.1832
258.000000	94.026	-45.2962
262.000000	93.941	-45.3942
265.000000	93.877	-45.4561
269.000000	93.792	-45.5218
272.000000	93.728	-45.5530
276.000000	93.644	-45.5652
280.000000	93.561	-45.5380
285.000000	93.463	-45.4303
290.000000	93.377	-45.2233
295.000000	93.316	-44.9417
300.000000	93.290	-44.7034
304.000000	93.289	-44.6550
307.000000	93.291	-44.7330
311.000000	93.285	-44.9670
315.000000	93.263	-45.2809
320.000000	93.212	-45.6820
325.000000	93.146	-46.0289
330.000000	93.072	-46.3062
335.000000	92.996	-46.5222
340.000000	92.921	-46.6935
345.000000	92.847	-46.8347
350.000000	92.775	-46.9518
355.000000	92.706	-47.0509
360.000000	92.640	-47.1367
365.000000	92.575	-47.2094
370.000000	92.512	-47.2719
375.000000	92.451	-47.3276
382.000000	92.370	-47.3939
387.000000	92.313	-47.4369
395.000000	92.225	-47.4965
400.000000	92.173	-47.5248
406.000000	92.113	-47.5576
412.000000	92.054	-47.5874
418.000000	91.998	-47.6091
425.000000	91.934	-47.6287
431.000000	91.882	-47.6401
437.000000	91.831	-47.6484
444.000000	91.774	-47.6575
450.000000	91.727	-47.6611
455.000000	91.689	-47.6620
462.000000	91.638	-47.6611
468.000000	91.597	-47.6591
475.000000	91.550	-47.6545
482.000000	91.505	-47.6490
487.000000	91.473	-47.6420
494.000000	91.432	-47.6290
500.000000	91.398	-47.6194
508.000000	91.354	-47.5983
515.000000	91.318	-47.5771
522.000000	91.285	-47.5583
530.000000	91.248	-47.5352
538.000000	91.214	-47.5073
545.000000	91.185	-47.4796
552.000000	91.158	-47.4484
560.000000	91.129	-47.4092
570.000000	91.096	-47.3557
580.000000	91.066	-47.3027
590.000000	91.039	-47.2463
600.000000	91.016	-47.1808
608.000000	90.999	-47.1260
615.000000	90.986	-47.0784
622.000000	90.974	-47.0295
630.000000	90.963	-46.9694
640.000000	90.952	-46.8875
650.000000	90.944	-46.8024
660.000000	90.940	-46.7161
670.000000	90.939	-46.6249
680.000000	90.941	-46.5312
690.000000	90.946	-46.4363
700.000000	90.953	-46.3394
710.000000	90.963	-46.2401
720.000000	90.976	-46.1382
730.000000	90.992	-46.0327
740.000000	91.010	-45.9214
750.000000	91.032	-45.8028
762.000000	91.061	-45.6576
775.000000	91.098	-45.4909
788.000000	91.140	-45.3093
800.000000	91.183	-45.1287
812.000000	91.232	-44.9348
825.000000	91.292	-44.7073
838.000000	91.360	-44.4648
850.000000	91.433	-44.2250
862.000000	91.514	-43.9791
875.000000	91.614	-43.7211
885.000000	91.700	-43.5339
900.000000	91.844	-43.2885
912.000000	91.972	-43.1466
925.000000	92.121	-43.0682
938.000000	92.278	-43.0765
950.000000	92.426	-43.1622
962.000000	92.576	-43.3184
975.000000	92.738	-43.5599
988.000000	92.898	-43.8663
1000.000000	93.044	-44.1970
1015.000000	93.223	-44.6675
1030.000000	93.396	-45.1893
1044.000000	93.554	-45.7129
1060.000000	93.732	-46.3493
1075.000000	93.896	-46.9828
1090.000000	94.058	-47.6489
1106.000000	94.228	-48.3885
1120.000000	94.373	-49.0626
1138.000000	94.557	-49.9697
1150.000000	94.676	-50.5971
1172.000000	94.887	-51.7885
1180.000000	94.962	-52.2335
1206.000000	95.195	-53.7104
1220.000000	95.316	-54.5180
1241.000000	95.489	-55.7411
1250.000000	95.561	-56.2693
1265.000000	95.677	-57.1533
1280.000000	95.789	-58.0383
1315.000000	96.036	-60.0904
1320.000000	96.070	-60.3817
1340.000000	96.200	-61.5403
1360.000000	96.326	-62.6829
1380.000000	96.446	-63.8088
1400.000000	96.562	-64.9208
1430.000000	96.727	-66.5598
1450.000000	96.833	-67.6294
1475.000000	96.960	-68.9386
1500.000000	97.081	-70.2134
1525.000000	97.198	-71.4575
1550.000000	97.311	-72.6707
1575.000000	97.420	-73.8489
1600.000000	97.524	-74.9915
1625.000000	97.625	-76.1003
1650.000000	97.722	-77.1733
1675.000000	97.816	-78.2048
1700.000000	97.907	-79.1921
1725.000000	97.994	-80.1346
1750.000000	98.078	-81.0247
1775.000000	98.160	-81.8510
1800.000000	98.241	-82.5990
1825.000000	98.324	-83.2592
1850.000000	98.415	-83.8271
1875.000000	98.519	-84.3147
1900.000000	98.643	-84.7673
1925.000000	98.789	-85.2639
1950.000000	98.948	-85.8822
1975.000000	99.104	-86.6464
2000.000000	99.245	-87.5074
2030.000000	99.391	-88.5591
2060.000000	99.515	-89.5266
2090.000000	99.628	-90.3018
2120.000000	99.743	-90.8480
2140.000000	99.829	-91.1127
2180.000000	100.039	-91.4952
2200.000000	100.169	-91.6591
2240.000000	100.479	-92.0792
2270.000000	100.751	-92.5855
2300.000000	101.043	-93.3478
2330.000000	101.339	-94.4171
2360.000000	101.620	-95.7872
2400.000000	101.947	-97.9575
2430.000000	102.148	-99.7062
2470.000000	102.364	-102.0180
2500.000000	102.497	-103.6609
2540.000000	102.654	-105.6995
2580.000000	102.805	-107.6091
2620.000000	102.956	-109.4749
2650.000000	103.067	-110.8889
2690.000000	103.207	-112.8199
2720.000000	103.301	-114.3038
2760.000000	103.408	-116.3118
2800.000000	103.489	-118.3070
2850.000000	103.555	-120.6868
2900.000000	103.595	-122.8610
2950.000000	103.626	-124.8168
3000.000000	103.660	-126.6010
3040.000000	103.691	-127.9511
3070.000000	103.717	-128.9357
3110.000000	103.752	-130.2180
3150.000000	103.787	-131.4661
3200.000000	103.830	-132.9789
3250.000000	103.872	-134.4470
3300.000000	103.911	-135.8808
3350.000000	103.941	-137.2705
3400.000000	103.958	-138.5629
3450.000000	103.965	-139.6644
3500.000000	103.980	-140.5049
3550.000000	104.027	-141.1165
3600.000000	104.124	-141.6346
3650.000000	104.270	-142.2236
3700.000000	104.456	-143.0070
3750.000000	104.666	-144.0500
3820.000000	104.976	-145.9948
3870.000000	105.194	-147.7396
3950.000000	105.508	-151.1282
4000.000000	105.666	-153.5865
4060.000000	105.801	-156.8143
4120.000000	105.861	-160.2360
4180.000000	105.839	-163.6998
4250.000000	105.711	-167.5637
4310.000000	105.526	-170.5386
4370.000000	105.297	-173.0895
4440.000000	105.006	-175.5103
4500.000000	104.763	-177.1850
4550.000000	104.574	-178.3802
4620.000000	104.333	-179.8770
4680.000000	104.143	178.9120
4750.000000	103.930	177.5170
4820.000000	103.709	176.1276
4870.000000	103.539	175.1683
4940.000000	103.277	173.9601
5000.000000	103.034	173.1228
5080.000000	102.695	172.3640
5150.000000	102.400	172.0592
5220.000000	102.118	172.0824
5300.000000	101.824	172.4677
5380.000000	101.573	173.1640
5450.000000	101.393	173.9626
5520.000000	101.250	174.8872
5600.000000	101.133	176.0514
5700.000000	101.057	177.6011
5800.000000	101.061	179.1559
5900.000000	101.145	-179.4193
6000.000000	101.302	-178.2712
6080.000000	101.470	-177.6440
6150.000000	101.638	-177.3613
6220.000000	101.818	-177.3615
6300.000000	102.022	-177.7331
6400.000000	102.250	-178.7507
6500.000000	102.417	179.7017
6600.000000	102.495	177.8048
6700.000000	102.472	175.8101
6800.000000	102.353	173.9718
6900.000000	102.154	172.4745
7000.000000	101.890	171.5105
7100.000000	101.606	171.2378
7200.000000	101.351	171.5532
7300.000000	101.146	172.2946
7400.000000	101.007	173.3378
7500.000000	100.950	174.5332
7620.000000	101.003	175.9042
7750.000000	101.211	176.9014
7880.000000	101.550	176.8741
8000.000000	101.922	175.4614
8120.000000	102.251	172.3804
8250.000000	102.410	167.2325
8380.000000	102.228	161.0438
8500.000000	101.718	155.6521
8620.000000	100.943	151.6315
8750.000000	99.946	149.3735
8850.000000	99.167	149.0763
9000.000000	98.109	150.4844
9120.000000	97.422	152.7183
9250.000000	96.880	155.7432
9380.000000	96.566	158.9625
9500.000000	96.480	161.7219
9620.000000	96.590	163.8638
9750.000000	96.903	164.9004
9880.000000	97.344	163.8419
10000.000000	97.724	160.3675
10150.000000	97.879	152.4928
10300.000000	97.367	142.3874
10440.000000	96.173	134.0491
10600.000000	94.105	129.2603
10750.000000	91.817	130.8854
10900.000000	89.641	138.0331
11060.000000	87.964	149.4106
11200.000000	87.251	159.8726
11380.000000	87.113	171.1511
11500.000000	87.254	176.7693
11720.000000	87.597	-176.3629
11800.000000	87.701	-174.7240
12060.000000	87.867	-171.5817
12200.000000	87.818	-170.8467
12410.000000	87.551	-170.3646
12500.000000	87.368	-170.2505
12650.000000	86.984	-170.0623
12800.000000	86.515	-169.8198
13150.000000	85.148	-169.0820
13200.000000	84.923	-168.9664
13400.000000	83.940	-168.4357
13600.000000	82.826	-167.6429
13800.000000	81.590	-166.3300
14000.000000	80.268	-164.2617
14300.000000	78.247	-159.5479
14500.000000	76.960	-155.4590
14750.000000	75.491	-149.5387
15000.000000	74.223	-142.8873
15250.000000	73.197	-135.5356
15500.000000	72.457	-127.5106
15750.000000	72.032	-118.9369
16000.000000	71.938	-110.1189
16250.000000	72.166	-101.5563
16500.000000	72.657	-94.0739
16750.000000	73.268	-88.8512
17000.000000	73.694	-86.9753
17250.000000	73.514	-87.9286
17500.000000	72.411	-88.1407
17750.000000	70.317	-81.2641
18000.000000	67.847	-61.3593
18250.000000	67.061	-35.8434
18500.000000	67.686	-17.8839
18750.000000	67.992	-6.0390
19000.000000	67.769	5.5899
19250.000000	67.356	19.5862
19500.000000	67.155	35.0934
19750.000000	67.265	48.7407
