* Measurement data measured by REW V5.20.13
* Source: EXCL: Headset (KM-HIFI-384KHZ), MICROPHONE (Master Volume), 0, volume: 1.000
* Format: 256k Log Swept Sine, 1 sweep at -20.0 dBFS with no timing reference
* Dated: Nov 12, 2023 10:42:14 PM
* REW Settings:
*  C-weighting compensation: Off
*  Target level: 75.0 dB
* Note: ; 
* Measurement: Kinera Hodur Show L
* Smoothing: 1/24 octave
* Frequency Step: 1/48 octave
* Start Frequency: 20.000 Hz
*
* Freq(Hz)	SPL(dB)	Phase(degrees)
20.000000	103.952	48.3689
20.299999	104.008	47.6380
20.600000	104.062	46.9209
20.900000	104.115	46.2155
21.200001	104.167	45.5210
21.400000	104.200	45.0651
21.799999	104.263	44.1733
22.000000	104.293	43.7390
22.400000	104.350	42.8960
22.700001	104.391	42.2860
23.000000	104.431	41.6931
23.299999	104.470	41.1138
23.600000	104.507	40.5447
24.000000	104.555	39.7982
24.299999	104.589	39.2466
24.700001	104.631	38.5238
25.000000	104.661	37.9928
25.400000	104.697	37.3007
25.799999	104.731	36.6250
26.200001	104.763	35.9622
26.500000	104.787	35.4714
26.900000	104.816	34.8246
27.200001	104.837	34.3453
27.600000	104.864	33.7140
28.000000	104.889	33.0911
28.500000	104.920	32.3236
29.000000	104.949	31.5696
29.500000	104.977	30.8323
30.000000	105.004	30.1136
30.400000	105.025	29.5510
30.700001	105.040	29.1351
31.100000	105.060	28.5886
31.500000	105.079	28.0526
32.000000	105.102	27.4010
32.500000	105.123	26.7721
33.000000	105.144	26.1635
33.500000	105.164	25.5694
34.000000	105.183	24.9848
34.500000	105.200	24.4098
35.000000	105.216	23.8479
35.500000	105.230	23.3010
36.000000	105.244	22.7647
36.500000	105.257	22.2338
37.000000	105.268	21.7111
37.500000	105.278	21.2061
38.200001	105.295	20.5271
38.700001	105.310	20.0354
39.500000	105.329	19.2010
40.000000	105.334	18.6852
40.599998	105.334	18.1229
41.200001	105.337	17.6158
41.799999	105.344	17.1166
42.500000	105.352	16.5217
43.099998	105.356	16.0249
43.700001	105.360	15.5433
44.400002	105.366	14.9802
45.000000	105.368	14.4977
45.500000	105.369	14.1064
46.200001	105.370	13.5741
46.799999	105.371	13.1205
47.500000	105.372	12.5943
48.200001	105.370	12.0847
48.700001	105.370	11.7336
49.400002	105.370	11.2498
50.000000	105.370	10.8324
50.799999	105.366	10.2861
51.500000	105.361	9.8378
52.200001	105.359	9.3979
53.000000	105.356	8.8813
53.799999	105.349	8.3797
54.500000	105.343	7.9603
55.200001	105.338	7.5397
56.000000	105.332	7.0635
57.000000	105.323	6.4832
58.000000	105.312	5.9183
59.000000	105.303	5.3738
60.000000	105.290	4.8240
60.799999	105.276	4.4243
61.500000	105.267	4.0931
62.200001	105.260	3.7440
63.000000	105.249	3.3462
64.000000	105.237	2.8766
65.000000	105.225	2.3752
66.000000	105.206	1.8981
67.000000	105.192	1.4640
68.000000	105.177	1.0061
69.000000	105.158	0.5745
70.000000	105.143	0.1611
71.000000	105.125	-0.2812
72.000000	105.102	-0.6982
73.000000	105.083	-1.0896
74.000000	105.064	-1.5056
75.000000	105.039	-1.9053
76.199997	105.013	-2.3348
77.500000	104.987	-2.8223
78.800003	104.953	-3.2827
80.000000	104.924	-3.6584
81.199997	104.897	-4.0421
82.500000	104.861	-4.4285
83.800003	104.830	-4.7513
85.000000	104.807	-5.0692
86.199997	104.781	-5.3849
87.500000	104.757	-5.6698
88.500000	104.748	-5.8948
90.000000	104.735	-6.3138
91.199997	104.718	-6.6584
92.500000	104.700	-6.9951
93.800003	104.688	-7.3536
95.000000	104.674	-7.7347
96.199997	104.650	-8.1164
97.500000	104.620	-8.4831
98.800003	104.594	-8.8240
100.000000	104.571	-9.1586
101.500000	104.539	-9.6088
103.000000	104.500	-10.0372
104.400002	104.463	-10.3920
106.000000	104.426	-10.7780
107.500000	104.394	-11.1566
109.000000	104.360	-11.5525
110.599998	104.321	-11.9609
112.000000	104.287	-12.2841
113.800003	104.245	-12.6525
115.000000	104.217	-12.8806
117.199997	104.166	-13.2968
118.000000	104.146	-13.4515
120.599998	104.078	-13.9661
122.000000	104.042	-14.2410
124.099998	103.991	-14.6454
125.000000	103.970	-14.8113
126.500000	103.932	-15.0747
128.000000	103.894	-15.3260
131.500000	103.804	-15.9165
132.000000	103.791	-16.0017
134.000000	103.740	-16.3374
136.000000	103.690	-16.6619
138.000000	103.638	-16.9773
140.000000	103.584	-17.2833
143.000000	103.503	-17.7335
145.000000	103.450	-18.0231
147.500000	103.384	-18.3683
150.000000	103.317	-18.6991
152.500000	103.250	-19.0288
155.000000	103.185	-19.3386
157.500000	103.118	-19.6019
160.000000	103.046	-19.8369
162.500000	102.968	-20.0831
165.000000	102.889	-20.3264
167.500000	102.814	-20.5183
170.000000	102.737	-20.6383
172.500000	102.658	-20.7120
175.000000	102.582	-20.7457
177.500000	102.518	-20.7197
180.000000	102.467	-20.6396
182.500000	102.427	-20.5577
185.000000	102.401	-20.5387
187.500000	102.382	-20.6104
190.000000	102.363	-20.7605
192.500000	102.339	-20.9753
195.000000	102.307	-21.2320
197.500000	102.268	-21.5014
200.000000	102.223	-21.7608
203.000000	102.163	-22.0417
206.000000	102.100	-22.2917
209.000000	102.034	-22.5171
212.000000	101.967	-22.7206
214.000000	101.923	-22.8482
218.000000	101.833	-23.0778
220.000000	101.788	-23.1797
224.000000	101.698	-23.3701
227.000000	101.632	-23.4985
230.000000	101.566	-23.6128
233.000000	101.499	-23.7197
236.000000	101.433	-23.8184
240.000000	101.346	-23.9246
243.000000	101.282	-23.9948
247.000000	101.197	-24.0787
250.000000	101.133	-24.1332
254.000000	101.050	-24.1976
258.000000	100.967	-24.2486
262.000000	100.885	-24.2875
265.000000	100.824	-24.3085
269.000000	100.744	-24.3284
272.000000	100.684	-24.3390
276.000000	100.606	-24.3430
280.000000	100.529	-24.3369
285.000000	100.432	-24.3127
290.000000	100.337	-24.2711
295.000000	100.244	-24.2198
300.000000	100.153	-24.1653
304.000000	100.080	-24.1139
307.000000	100.026	-24.0657
311.000000	99.955	-23.9896
315.000000	99.886	-23.9117
320.000000	99.800	-23.8170
325.000000	99.714	-23.7072
330.000000	99.629	-23.5837
335.000000	99.544	-23.4552
340.000000	99.460	-23.3100
345.000000	99.377	-23.1438
350.000000	99.296	-22.9715
355.000000	99.216	-22.8022
360.000000	99.138	-22.6366
365.000000	99.060	-22.4645
370.000000	98.985	-22.2889
375.000000	98.912	-22.1011
382.000000	98.812	-21.8097
387.000000	98.741	-21.5978
395.000000	98.629	-21.2539
400.000000	98.561	-21.0317
406.000000	98.480	-20.7607
412.000000	98.402	-20.4816
418.000000	98.325	-20.1952
425.000000	98.236	-19.8502
431.000000	98.162	-19.5458
437.000000	98.089	-19.2362
444.000000	98.005	-18.8702
450.000000	97.935	-18.5537
455.000000	97.878	-18.2825
462.000000	97.799	-17.8945
468.000000	97.732	-17.5596
475.000000	97.657	-17.1638
482.000000	97.582	-16.7552
487.000000	97.531	-16.4606
494.000000	97.459	-16.0474
500.000000	97.399	-15.6863
508.000000	97.320	-15.1940
515.000000	97.254	-14.7569
522.000000	97.189	-14.3124
530.000000	97.116	-13.7957
538.000000	97.047	-13.2791
545.000000	96.987	-12.8241
552.000000	96.929	-12.3627
560.000000	96.865	-11.8271
570.000000	96.786	-11.1426
580.000000	96.709	-10.4476
590.000000	96.637	-9.7580
600.000000	96.567	-9.0538
608.000000	96.514	-8.4814
615.000000	96.469	-7.9816
622.000000	96.426	-7.4786
630.000000	96.378	-6.8996
640.000000	96.319	-6.1724
650.000000	96.265	-5.4358
660.000000	96.214	-4.6904
670.000000	96.166	-3.9379
680.000000	96.122	-3.1873
690.000000	96.081	-2.4435
700.000000	96.045	-1.7015
710.000000	96.014	-0.9670
720.000000	95.986	-0.2518
730.000000	95.963	0.4318
740.000000	95.943	1.0583
750.000000	95.923	1.5834
762.000000	95.881	2.0056
775.000000	95.754	2.3187
788.000000	95.515	3.3046
800.000000	95.334	5.3173
812.000000	95.299	7.6118
825.000000	95.362	9.7502
838.000000	95.478	11.5240
850.000000	95.613	12.7358
862.000000	95.727	13.5190
875.000000	95.800	14.1920
885.000000	95.832	14.7566
900.000000	95.870	15.7297
912.000000	95.902	16.5773
925.000000	95.943	17.5248
938.000000	95.990	18.4783
950.000000	96.038	19.3542
962.000000	96.091	20.2219
975.000000	96.153	21.1475
988.000000	96.219	22.0536
1000.000000	96.284	22.8708
1015.000000	96.370	23.8696
1030.000000	96.460	24.8466
1044.000000	96.548	25.7382
1060.000000	96.654	26.7314
1075.000000	96.757	27.6389
1090.000000	96.866	28.5302
1106.000000	96.990	29.4601
1120.000000	97.107	30.2427
1138.000000	97.267	31.1813
1150.000000	97.380	31.7481
1172.000000	97.591	32.6356
1180.000000	97.667	32.9132
1206.000000	97.903	33.7055
1220.000000	98.025	34.0858
1241.000000	98.203	34.6154
1250.000000	98.279	34.8298
1265.000000	98.403	35.1707
1280.000000	98.527	35.4917
1315.000000	98.815	36.1622
1320.000000	98.856	36.2474
1340.000000	99.021	36.5547
1360.000000	99.183	36.8105
1380.000000	99.345	37.0193
1400.000000	99.506	37.1633
1430.000000	99.736	37.2927
1450.000000	99.881	37.3713
1475.000000	100.050	37.4605
1500.000000	100.210	37.5289
1525.000000	100.363	37.6106
1550.000000	100.511	37.7364
1575.000000	100.658	37.9428
1600.000000	100.815	38.2621
1625.000000	101.001	38.6650
1650.000000	101.230	39.0145
1675.000000	101.494	39.1255
1700.000000	101.769	38.8936
1725.000000	102.030	38.3415
1750.000000	102.263	37.5703
1775.000000	102.465	36.6854
1800.000000	102.642	35.7541
1825.000000	102.800	34.8073
1850.000000	102.941	33.8526
1875.000000	103.070	32.8875
1900.000000	103.185	31.9116
1925.000000	103.287	30.9363
1950.000000	103.377	29.9771
1975.000000	103.458	29.0407
2000.000000	103.532	28.1261
2030.000000	103.613	27.0542
2060.000000	103.688	26.0043
2090.000000	103.761	24.9629
2120.000000	103.832	23.9103
2140.000000	103.880	23.1906
2180.000000	103.974	21.6604
2200.000000	104.019	20.8202
2240.000000	104.087	18.9530
2270.000000	104.106	17.4272
2300.000000	104.091	15.8679
2330.000000	104.042	14.3473
2360.000000	103.962	12.9213
2400.000000	103.819	11.2280
2430.000000	103.691	10.1415
2470.000000	103.503	8.9603
2500.000000	103.358	8.2789
2540.000000	103.171	7.6173
2580.000000	103.004	7.1655
2620.000000	102.861	6.8042
2650.000000	102.765	6.5335
2690.000000	102.642	6.1416
2720.000000	102.546	5.8359
2760.000000	102.411	5.4580
2800.000000	102.268	5.1505
2850.000000	102.082	4.8842
2900.000000	101.891	4.7606
2950.000000	101.696	4.8052
3000.000000	101.503	5.0437
3040.000000	101.357	5.3790
3070.000000	101.255	5.7053
3110.000000	101.132	6.2149
3150.000000	101.025	6.7736
3200.000000	100.910	7.5018
3250.000000	100.810	8.2524
3300.000000	100.721	9.0363
3350.000000	100.644	9.8682
3400.000000	100.579	10.7548
3450.000000	100.529	11.6954
3500.000000	100.498	12.6771
3550.000000	100.486	13.6767
3600.000000	100.493	14.6707
3650.000000	100.516	15.6433
3700.000000	100.554	16.5923
3750.000000	100.604	17.5258
3820.000000	100.698	18.8206
3870.000000	100.785	19.7393
3950.000000	100.967	21.1717
4000.000000	101.110	21.9985
4060.000000	101.314	22.8612
4120.000000	101.548	23.5218
4180.000000	101.804	23.9204
4250.000000	102.114	24.0139
4310.000000	102.372	23.7828
4370.000000	102.609	23.3347
4440.000000	102.852	22.7661
4500.000000	103.061	22.4504
4550.000000	103.275	22.2943
4620.000000	103.676	21.8618
4680.000000	104.101	20.8388
4750.000000	104.627	18.4570
4820.000000	105.091	14.6065
4870.000000	105.326	11.0248
4940.000000	105.455	5.2512
5000.000000	105.354	0.1315
5080.000000	104.940	-6.0820
5150.000000	104.378	-10.4289
5220.000000	103.698	-13.5476
5300.000000	102.840	-15.4647
5380.000000	102.007	-15.3448
5450.000000	101.497	-14.2756
5520.000000	101.149	-14.1124
5600.000000	100.627	-14.4016
5700.000000	99.855	-13.5344
5800.000000	99.133	-11.3439
5900.000000	98.518	-8.3899
6000.000000	98.006	-4.9940
6080.000000	97.667	-2.0609
6150.000000	97.418	0.6371
6220.000000	97.208	3.4418
6300.000000	97.016	6.7671
6400.000000	96.848	11.1024
6500.000000	96.773	15.6468
6600.000000	96.822	20.3083
6700.000000	97.008	24.6910
6800.000000	97.264	28.4418
6900.000000	97.520	31.8839
7000.000000	97.808	35.4764
7100.000000	98.189	39.2224
7200.000000	98.696	42.8968
7300.000000	99.342	46.2715
7400.000000	100.130	49.1398
7500.000000	101.059	51.3070
7620.000000	102.367	52.5753
7750.000000	104.002	51.4520
7880.000000	105.711	46.3293
8000.000000	107.038	36.8735
8120.000000	107.737	23.3406
8250.000000	107.534	7.6516
8380.000000	106.482	-4.5814
8500.000000	105.135	-11.2677
8620.000000	103.763	-14.2423
8750.000000	102.456	-14.6621
8850.000000	101.625	-13.7374
9000.000000	100.664	-11.1609
9120.000000	100.122	-8.5216
9250.000000	99.743	-5.4097
9380.000000	99.563	-2.2725
9500.000000	99.564	0.4594
9620.000000	99.721	2.8543
9750.000000	100.058	4.8450
9880.000000	100.550	5.9352
10000.000000	101.117	5.8523
10150.000000	101.908	3.8485
10300.000000	102.663	-0.6174
10440.000000	103.198	-6.9112
10600.000000	103.497	-15.8654
10750.000000	103.435	-25.1657
10900.000000	103.009	-34.3930
11060.000000	102.228	-43.1046
11200.000000	101.366	-49.6456
11380.000000	100.064	-56.7253
11500.000000	99.079	-60.4874
11720.000000	97.085	-64.8490
11800.000000	96.333	-65.5788
12060.000000	93.956	-65.1942
12200.000000	92.791	-63.5194
12410.000000	91.306	-59.8779
12500.000000	90.786	-58.2197
12650.000000	90.072	-55.8070
12800.000000	89.516	-54.3579
13150.000000	88.382	-57.7384
13200.000000	88.175	-59.1921
13400.000000	87.026	-67.3915
13600.000000	85.160	-78.5898
13800.000000	82.424	-92.4158
14000.000000	78.833	-112.2673
14300.000000	73.945	-164.3078
14500.000000	75.452	158.2778
14750.000000	79.625	128.5350
15000.000000	82.712	108.4134
15250.000000	84.152	91.3963
15500.000000	85.220	82.3265
15750.000000	86.498	71.4694
16000.000000	86.443	59.2798
16250.000000	86.317	54.7459
16500.000000	87.117	51.7916
16750.000000	88.472	45.0333
17000.000000	89.645	31.9106
17250.000000	89.972	13.8961
17500.000000	89.251	-4.0463
17750.000000	87.552	-16.9822
18000.000000	85.299	-22.5642
18250.000000	83.038	-22.8207
18500.000000	80.929	-19.7688
18750.000000	78.898	-13.7941
19000.000000	76.926	-4.5290
19250.000000	75.131	7.8254
19500.000000	73.658	21.9977
19750.000000	72.580	35.3755
