* Measurement data measured by REW V5.20.13
* Source: EXCL: Headset (KM-HIFI-384KHZ), MICROPHONE (Master Volume), 0, volume: 1.000
* Format: 256k Log Swept Sine, 1 sweep at -24.0 dBFS with no timing reference
* Dated: Oct 27, 2023 7:34:21 PM
* REW Settings:
*  C-weighting compensation: Off
*  Target level: 75.0 dB
* Note: ; 
* Measurement: KSC-75 Headband Stock R
* Smoothing: 1/24 octave
* Frequency Step: 1/48 octave
* Start Frequency: 20.000 Hz
*
* Freq(Hz)	SPL(dB)	Phase(degrees)
20.000000	56.917	-25.2121
20.299999	57.292	-26.4073
20.600000	57.594	-28.0970
20.900000	57.792	-30.0159
21.200001	57.876	-31.7724
21.400000	57.884	-32.6287
21.799999	57.848	-33.3691
22.000000	57.845	-33.2417
22.400000	57.957	-32.2853
22.700001	58.171	-31.4631
23.000000	58.469	-31.0395
23.299999	58.789	-31.1970
23.600000	59.083	-31.8649
24.000000	59.386	-33.1979
24.299999	59.547	-34.1741
24.700001	59.710	-35.1298
25.000000	59.830	-35.5531
25.400000	60.019	-35.8808
25.799999	60.240	-36.1768
26.200001	60.468	-36.5298
26.500000	60.636	-36.7756
26.900000	60.864	-36.9947
27.200001	61.052	-37.0915
27.600000	61.333	-37.2653
28.000000	61.629	-37.6867
28.500000	61.958	-38.6099
29.000000	62.195	-39.5546
29.500000	62.376	-40.0130
30.000000	62.589	-39.9609
30.400000	62.809	-39.8850
30.700001	62.990	-39.9787
31.100000	63.218	-40.3488
31.500000	63.409	-40.8640
32.000000	63.600	-41.4029
32.500000	63.785	-41.6832
33.000000	64.002	-41.8936
33.500000	64.244	-42.2974
34.000000	64.479	-42.9887
34.500000	64.685	-43.8686
35.000000	64.857	-44.7725
35.500000	65.009	-45.5422
36.000000	65.169	-46.1272
36.500000	65.358	-46.6388
37.000000	65.568	-47.2569
37.500000	65.771	-48.0032
38.200001	66.032	-48.9276
38.700001	66.238	-49.3995
39.500000	66.619	-50.4185
40.000000	66.820	-51.3604
40.599998	66.985	-52.3467
41.200001	67.131	-52.7548
41.799999	67.331	-52.8565
42.500000	67.605	-53.2028
43.099998	67.817	-53.6677
43.700001	68.016	-54.0640
44.400002	68.260	-54.5624
45.000000	68.458	-55.1614
45.500000	68.603	-55.6861
46.200001	68.794	-56.3124
46.799999	68.968	-56.8103
47.500000	69.176	-57.4545
48.200001	69.385	-58.1256
48.700001	69.538	-58.6262
49.400002	69.753	-59.4211
50.000000	69.921	-60.1552
50.799999	70.127	-61.0410
51.500000	70.307	-61.7037
52.200001	70.491	-62.3438
53.000000	70.697	-63.0546
53.799999	70.905	-63.7203
54.500000	71.094	-64.3457
55.200001	71.276	-65.0691
56.000000	71.463	-65.9423
57.000000	71.674	-66.9037
58.000000	71.898	-67.6990
59.000000	72.147	-68.6044
60.000000	72.372	-69.7161
60.799999	72.525	-70.5592
61.500000	72.654	-71.2015
62.200001	72.786	-71.7884
63.000000	72.944	-72.4402
64.000000	73.153	-73.3345
65.000000	73.351	-74.3497
66.000000	73.535	-75.3502
67.000000	73.714	-76.3162
68.000000	73.891	-77.1723
69.000000	74.091	-77.9752
70.000000	74.294	-78.9500
71.000000	74.471	-79.9714
72.000000	74.638	-80.8969
73.000000	74.808	-81.7923
74.000000	74.979	-82.7363
75.000000	75.142	-83.7278
76.199997	75.327	-84.9165
77.500000	75.518	-86.1907
78.800003	75.704	-87.4560
80.000000	75.866	-88.6179
81.199997	76.025	-89.7416
82.500000	76.197	-90.9862
83.800003	76.361	-92.2427
85.000000	76.512	-93.4077
86.199997	76.658	-94.6153
87.500000	76.802	-95.9707
88.500000	76.899	-96.9841
90.000000	77.039	-98.4336
91.199997	77.147	-99.5932
92.500000	77.259	-100.8859
93.800003	77.361	-102.2301
95.000000	77.445	-103.5164
96.199997	77.515	-104.8000
97.500000	77.578	-106.1333
98.800003	77.629	-107.3484
100.000000	77.671	-108.3861
101.500000	77.699	-109.6319
103.000000	77.695	-110.6694
104.400002	77.694	-111.4571
106.000000	77.716	-112.2600
107.500000	77.764	-112.9770
109.000000	77.831	-113.6331
110.599998	77.920	-114.2752
112.000000	78.004	-114.8396
113.800003	78.120	-115.7046
115.000000	78.200	-116.3972
117.199997	78.377	-117.8239
118.000000	78.450	-118.4193
120.599998	78.613	-120.4780
122.000000	78.656	-121.2728
124.099998	78.722	-122.4337
125.000000	78.745	-122.9986
126.500000	78.782	-124.0216
128.000000	78.814	-125.1130
131.500000	78.847	-127.5461
132.000000	78.843	-127.8577
134.000000	78.814	-128.9547
136.000000	78.793	-129.8230
138.000000	78.806	-130.6231
140.000000	78.838	-131.5123
143.000000	78.858	-132.8859
145.000000	78.864	-133.7104
147.500000	78.880	-134.7150
150.000000	78.898	-135.6996
152.500000	78.920	-136.6516
155.000000	78.953	-137.6211
157.500000	78.981	-138.7123
160.000000	78.985	-139.7211
162.500000	78.990	-140.5897
165.000000	78.998	-141.4443
167.500000	78.993	-142.4111
170.000000	78.953	-143.4615
172.500000	78.884	-144.3545
175.000000	78.827	-144.9265
177.500000	78.816	-145.3439
180.000000	78.826	-145.8707
182.500000	78.813	-146.4696
185.000000	78.790	-147.0134
187.500000	78.772	-147.5521
190.000000	78.761	-148.1230
192.500000	78.746	-148.7280
195.000000	78.720	-149.2500
197.500000	78.694	-149.6679
200.000000	78.667	-150.0944
203.000000	78.627	-150.6407
206.000000	78.596	-151.1806
209.000000	78.573	-151.7101
212.000000	78.559	-152.1905
214.000000	78.555	-152.5112
218.000000	78.530	-153.0751
220.000000	78.512	-153.2960
224.000000	78.478	-153.7141
227.000000	78.461	-154.0489
230.000000	78.447	-154.3999
233.000000	78.428	-154.7522
236.000000	78.407	-155.1137
240.000000	78.381	-155.6014
243.000000	78.365	-155.9724
247.000000	78.341	-156.4810
250.000000	78.316	-156.8287
254.000000	78.273	-157.1987
258.000000	78.236	-157.5138
262.000000	78.194	-157.8108
265.000000	78.161	-158.0302
269.000000	78.128	-158.2780
272.000000	78.110	-158.4363
276.000000	78.083	-158.6571
280.000000	78.046	-158.8607
285.000000	77.992	-159.1015
290.000000	77.951	-159.3406
295.000000	77.924	-159.5421
300.000000	77.889	-159.7060
304.000000	77.855	-159.8409
307.000000	77.834	-159.9270
311.000000	77.812	-160.0118
315.000000	77.789	-160.0854
320.000000	77.763	-160.1866
325.000000	77.736	-160.2524
330.000000	77.705	-160.2837
335.000000	77.687	-160.3512
340.000000	77.677	-160.4538
345.000000	77.654	-160.5832
350.000000	77.621	-160.6562
355.000000	77.599	-160.6758
360.000000	77.585	-160.6550
365.000000	77.562	-160.7191
370.000000	77.537	-160.8099
375.000000	77.512	-160.8329
382.000000	77.474	-160.7801
387.000000	77.447	-160.7324
395.000000	77.407	-160.6731
400.000000	77.382	-160.6387
406.000000	77.358	-160.5737
412.000000	77.344	-160.4688
418.000000	77.331	-160.4030
425.000000	77.315	-160.2763
431.000000	77.303	-160.1284
437.000000	77.291	-159.9879
444.000000	77.279	-159.8351
450.000000	77.268	-159.7169
455.000000	77.258	-159.6263
462.000000	77.246	-159.5009
468.000000	77.238	-159.3895
475.000000	77.222	-159.2051
482.000000	77.207	-158.9785
487.000000	77.204	-158.8177
494.000000	77.204	-158.6317
500.000000	77.203	-158.4972
508.000000	77.196	-158.3102
515.000000	77.194	-158.1444
522.000000	77.193	-158.0013
530.000000	77.180	-157.8529
538.000000	77.165	-157.6019
545.000000	77.162	-157.3514
552.000000	77.160	-157.1304
560.000000	77.155	-156.8726
570.000000	77.151	-156.5724
580.000000	77.151	-156.2557
590.000000	77.155	-155.8962
600.000000	77.164	-155.5316
608.000000	77.171	-155.2449
615.000000	77.181	-155.0093
622.000000	77.191	-154.7830
630.000000	77.200	-154.5183
640.000000	77.207	-154.1782
650.000000	77.217	-153.8505
660.000000	77.231	-153.5275
670.000000	77.246	-153.1985
680.000000	77.264	-152.8573
690.000000	77.282	-152.5044
700.000000	77.298	-152.1415
710.000000	77.319	-151.7864
720.000000	77.345	-151.4754
730.000000	77.365	-151.1937
740.000000	77.380	-150.8946
750.000000	77.397	-150.5583
762.000000	77.425	-150.1461
775.000000	77.459	-149.7197
788.000000	77.491	-149.3068
800.000000	77.521	-148.9327
812.000000	77.547	-148.5542
825.000000	77.576	-148.1124
838.000000	77.612	-147.6932
850.000000	77.642	-147.3039
862.000000	77.676	-146.9180
875.000000	77.713	-146.5341
885.000000	77.739	-146.2441
900.000000	77.776	-145.7820
912.000000	77.807	-145.4065
925.000000	77.842	-145.0303
938.000000	77.868	-144.6663
950.000000	77.884	-144.2816
962.000000	77.903	-143.8355
975.000000	77.932	-143.3087
988.000000	77.966	-142.7914
1000.000000	78.000	-142.3281
1015.000000	78.044	-141.7398
1030.000000	78.092	-141.1377
1044.000000	78.139	-140.5925
1060.000000	78.193	-139.9576
1075.000000	78.247	-139.3432
1090.000000	78.304	-138.7363
1106.000000	78.369	-138.1038
1120.000000	78.425	-137.5526
1138.000000	78.496	-136.8202
1150.000000	78.545	-136.3179
1172.000000	78.648	-135.3445
1180.000000	78.691	-134.9959
1206.000000	78.833	-133.9093
1220.000000	78.912	-133.3559
1241.000000	79.029	-132.5372
1250.000000	79.081	-132.1726
1265.000000	79.173	-131.5465
1280.000000	79.272	-130.9343
1315.000000	79.507	-129.6892
1320.000000	79.539	-129.5163
1340.000000	79.665	-128.7679
1360.000000	79.807	-127.9509
1380.000000	79.965	-127.1666
1400.000000	80.138	-126.4349
1430.000000	80.396	-125.5886
1450.000000	80.556	-125.0125
1475.000000	80.778	-124.2330
1500.000000	81.016	-123.6021
1525.000000	81.240	-123.0511
1550.000000	81.476	-122.4361
1575.000000	81.728	-121.9224
1600.000000	81.986	-121.4836
1625.000000	82.259	-121.0879
1650.000000	82.562	-120.8400
1675.000000	82.876	-120.9271
1700.000000	83.177	-121.4423
1725.000000	83.418	-122.4907
1750.000000	83.510	-123.6946
1775.000000	83.466	-123.9912
1800.000000	83.462	-122.9146
1825.000000	83.636	-121.3157
1850.000000	83.946	-120.0769
1875.000000	84.315	-119.4512
1900.000000	84.675	-119.3820
1925.000000	85.002	-119.5638
1950.000000	85.317	-119.8002
1975.000000	85.638	-120.1427
2000.000000	85.958	-120.6710
2030.000000	86.329	-121.4825
2060.000000	86.704	-122.4953
2090.000000	87.052	-124.0114
2120.000000	87.275	-125.7255
2140.000000	87.376	-126.4191
2180.000000	87.723	-126.8877
2200.000000	87.979	-127.4117
2240.000000	88.437	-129.4896
2270.000000	88.705	-131.1873
2300.000000	88.965	-132.8128
2330.000000	89.223	-134.5493
2360.000000	89.476	-136.4486
2400.000000	89.767	-139.3564
2430.000000	89.928	-141.6316
2470.000000	90.080	-144.5503
2500.000000	90.173	-146.5502
2540.000000	90.296	-149.2186
2580.000000	90.378	-151.9494
2620.000000	90.400	-154.6633
2650.000000	90.370	-156.3704
2690.000000	90.355	-158.1334
2720.000000	90.388	-159.2600
2760.000000	90.496	-161.0807
2800.000000	90.553	-163.2617
2850.000000	90.605	-165.7666
2900.000000	90.658	-168.3038
2950.000000	90.705	-170.8935
3000.000000	90.748	-173.5948
3040.000000	90.752	-175.7413
3070.000000	90.764	-177.2109
3110.000000	90.823	-179.2597
3150.000000	90.899	178.2944
3200.000000	90.934	174.6462
3250.000000	90.877	171.0735
3300.000000	90.816	167.4080
3350.000000	90.685	163.7079
3400.000000	90.533	160.1762
3450.000000	90.396	156.9291
3500.000000	90.379	153.3882
3550.000000	90.404	148.6196
3600.000000	90.379	142.5871
3650.000000	90.250	135.1301
3700.000000	89.957	126.0994
3750.000000	89.391	115.3252
3820.000000	87.917	97.8625
3870.000000	86.256	84.2601
3950.000000	82.138	62.5594
4000.000000	78.423	49.4995
4060.000000	73.157	19.5135
4120.000000	69.414	-37.8850
4180.000000	71.258	-88.2866
4250.000000	74.739	-110.9099
4310.000000	76.963	-116.5299
4370.000000	78.646	-118.9316
4440.000000	80.281	-119.6799
4500.000000	81.666	-119.5172
4550.000000	82.851	-119.6953
4620.000000	84.503	-121.2616
4680.000000	85.850	-124.1678
4750.000000	87.230	-129.4626
4820.000000	88.318	-136.1781
4870.000000	88.939	-141.1885
4940.000000	89.718	-148.2527
5000.000000	90.320	-155.0416
5080.000000	90.855	-165.9028
5150.000000	90.877	-176.3781
5220.000000	90.438	174.2392
5300.000000	89.612	166.3840
5380.000000	88.694	161.2305
5450.000000	87.927	158.3676
5520.000000	87.236	156.4056
5600.000000	86.510	155.0198
5700.000000	85.729	154.2408
5800.000000	85.056	154.0142
5900.000000	84.453	154.3322
6000.000000	83.959	155.4807
6080.000000	83.727	156.4625
6150.000000	83.613	156.7863
6220.000000	83.506	156.4339
6300.000000	83.304	155.5378
6400.000000	82.927	154.4431
6500.000000	82.438	153.6968
6600.000000	81.837	153.7308
6700.000000	81.175	155.1800
6800.000000	80.597	158.1893
6900.000000	80.242	162.2137
7000.000000	80.153	166.0421
7100.000000	80.172	168.9898
7200.000000	80.167	171.7674
7300.000000	80.227	175.3184
7400.000000	80.550	179.4622
7500.000000	81.228	-177.0933
7620.000000	82.336	-175.8071
7750.000000	83.448	-178.9579
7880.000000	84.137	174.9347
8000.000000	84.471	168.5574
8120.000000	84.580	161.4879
8250.000000	84.351	153.4091
8380.000000	83.777	146.0930
8500.000000	83.058	140.5035
8620.000000	82.271	135.5155
8750.000000	81.288	129.8207
8850.000000	80.291	125.5480
9000.000000	78.257	121.8755
9120.000000	76.232	123.6371
9250.000000	73.966	132.2603
9380.000000	72.442	145.6715
9500.000000	72.020	157.6251
9620.000000	72.080	167.7875
9750.000000	72.475	178.1353
9880.000000	73.475	-171.5978
10000.000000	75.087	-164.2006
10150.000000	77.332	-162.1476
10300.000000	79.163	-167.6041
10440.000000	80.435	-177.0235
10600.000000	81.248	167.6669
10750.000000	81.084	150.4277
10900.000000	79.882	134.7012
11060.000000	77.709	123.3820
11200.000000	75.329	118.8037
11380.000000	71.846	121.3623
11500.000000	69.379	131.1393
11720.000000	67.635	173.0521
11800.000000	68.993	-172.8942
12060.000000	73.089	-165.4125
12200.000000	74.218	-171.9477
12410.000000	75.110	177.4172
12500.000000	75.268	172.9946
12650.000000	75.274	166.3911
12800.000000	75.129	162.3371
13150.000000	77.016	152.6074
13200.000000	77.369	148.5018
13400.000000	78.087	125.1933
13600.000000	77.491	96.8613
13800.000000	75.876	69.7067
14000.000000	73.899	45.3494
14300.000000	72.050	12.9535
14500.000000	72.370	-9.2258
14750.000000	73.220	-40.0116
15000.000000	73.341	-69.1234
15250.000000	72.545	-91.4758
15500.000000	71.157	-104.2886
15750.000000	70.078	-110.2452
16000.000000	69.461	-117.0575
16250.000000	68.403	-125.2330
16500.000000	66.662	-130.6838
16750.000000	64.331	-130.0347
17000.000000	61.835	-118.6744
17250.000000	61.026	-101.4099
17500.000000	62.115	-90.1176
17750.000000	63.339	-87.4745
18000.000000	64.159	-88.8541
18250.000000	64.748	-90.9009
18500.000000	65.360	-92.9993
18750.000000	66.030	-96.3131
19000.000000	66.540	-101.4320
19250.000000	66.689	-107.6820
19500.000000	66.328	-113.3928
19750.000000	65.586	-116.5411
