* Measurement data measured by REW V5.20.13
* Source: EXCL: Headset (KM-HIFI-384KHZ), MICROPHONE (Master Volume), 0, volume: 1.000
* Format: 256k Log Swept Sine, 1 sweep at -20.0 dBFS with no timing reference
* Dated: Nov 11, 2023 10:52:03 PM
* REW Settings:
*  C-weighting compensation: Off
*  Target level: 75.0 dB
* Note: ; 
* Measurement: Poke MDR-CD1700 L
* Smoothing: 1/24 octave
* Frequency Step: 1/48 octave
* Start Frequency: 20.000 Hz
*
* Freq(Hz)	SPL(dB)	Phase(degrees)
20.000000	76.834	-59.9158
20.299999	77.006	-60.6190
20.600000	77.169	-61.2766
20.900000	77.325	-61.8609
21.200001	77.481	-62.3649
21.400000	77.588	-62.6667
21.799999	77.810	-63.2217
22.000000	77.924	-63.4937
22.400000	78.159	-64.0614
22.700001	78.337	-64.5214
23.000000	78.512	-65.0131
23.299999	78.683	-65.5300
23.600000	78.849	-66.0642
24.000000	79.063	-66.7914
24.299999	79.217	-67.3413
24.700001	79.417	-68.0780
25.000000	79.562	-68.6357
25.400000	79.751	-69.3934
25.799999	79.933	-70.1757
26.200001	80.106	-70.9828
26.500000	80.228	-71.5953
26.900000	80.381	-72.3988
27.200001	80.488	-72.9708
27.600000	80.628	-73.6710
28.000000	80.771	-74.3002
28.500000	80.964	-75.0468
29.000000	81.171	-75.8625
29.500000	81.377	-76.8108
30.000000	81.565	-77.8348
30.400000	81.702	-78.6259
30.700001	81.801	-79.1752
31.100000	81.935	-79.8571
31.500000	82.074	-80.5221
32.000000	82.250	-81.3943
32.500000	82.418	-82.3240
33.000000	82.572	-83.2668
33.500000	82.712	-84.1948
34.000000	82.837	-85.1094
34.500000	82.940	-85.9777
35.000000	83.023	-86.7082
35.500000	83.099	-87.2194
36.000000	83.193	-87.5404
36.500000	83.315	-87.7928
37.000000	83.460	-88.0956
37.500000	83.618	-88.4910
38.200001	83.850	-89.2053
38.700001	84.020	-89.8457
39.500000	84.276	-91.0871
40.000000	84.419	-91.9220
40.599998	84.578	-92.8939
41.200001	84.736	-93.8134
41.799999	84.901	-94.7376
42.500000	85.093	-95.9236
43.099998	85.241	-97.0420
43.700001	85.366	-98.1530
44.400002	85.496	-99.3363
45.000000	85.609	-100.3035
45.500000	85.701	-101.1442
46.200001	85.812	-102.3365
46.799999	85.894	-103.2539
47.500000	86.007	-104.1936
48.200001	86.149	-105.2089
48.700001	86.254	-106.0858
49.400002	86.377	-107.4859
50.000000	86.451	-108.6861
50.799999	86.524	-110.0675
51.500000	86.594	-111.0670
52.200001	86.681	-111.9989
53.000000	86.794	-113.1005
53.799999	86.907	-114.2914
54.500000	86.997	-115.4288
55.200001	87.071	-116.6501
56.000000	87.128	-118.0888
57.000000	87.166	-119.8251
58.000000	87.192	-121.4950
59.000000	87.215	-123.1981
60.000000	87.232	-125.0048
60.799999	87.223	-126.5698
61.500000	87.187	-127.9519
62.200001	87.122	-129.2779
63.000000	87.006	-130.6839
64.000000	86.788	-132.0048
65.000000	86.532	-132.5537
66.000000	86.285	-132.3548
67.000000	86.106	-131.3868
68.000000	86.079	-130.1563
69.000000	86.181	-129.4871
70.000000	86.301	-129.7470
71.000000	86.322	-130.6496
72.000000	86.203	-131.2572
73.000000	86.043	-130.8479
74.000000	85.981	-129.5873
75.000000	86.069	-128.2171
76.199997	86.296	-127.2483
77.500000	86.554	-127.1119
78.800003	86.761	-127.4874
80.000000	86.918	-127.9502
81.199997	87.064	-128.4552
82.500000	87.229	-129.0073
83.800003	87.411	-129.6916
85.000000	87.576	-130.5267
86.199997	87.713	-131.5541
87.500000	87.811	-132.7375
88.500000	87.849	-133.5946
90.000000	87.878	-134.6088
91.199997	87.915	-135.2879
92.500000	87.974	-136.0949
93.800003	88.033	-137.0766
95.000000	88.066	-138.0430
96.199997	88.079	-138.9348
97.500000	88.080	-139.8132
98.800003	88.064	-140.6232
100.000000	88.034	-141.2534
101.500000	87.994	-141.8612
103.000000	87.964	-142.2964
104.400002	87.966	-142.5824
106.000000	88.001	-143.0138
107.500000	88.029	-143.5981
109.000000	88.037	-144.1994
110.599998	88.042	-144.7465
112.000000	88.052	-145.1898
113.800003	88.069	-145.7649
115.000000	88.075	-146.1697
117.199997	88.063	-146.9214
118.000000	88.055	-147.1914
120.599998	88.033	-148.1413
122.000000	88.020	-148.7379
124.099998	87.978	-149.6044
125.000000	87.951	-149.9322
126.500000	87.892	-150.3684
128.000000	87.828	-150.6323
131.500000	87.733	-150.8985
132.000000	87.725	-150.9570
134.000000	87.680	-151.2879
136.000000	87.591	-151.6105
138.000000	87.467	-151.6683
140.000000	87.345	-151.2510
143.000000	87.291	-149.8962
145.000000	87.360	-149.1352
147.500000	87.478	-148.7517
150.000000	87.588	-148.7633
152.500000	87.678	-148.9294
155.000000	87.752	-149.1467
157.500000	87.811	-149.4602
160.000000	87.841	-149.8043
162.500000	87.853	-150.0060
165.000000	87.879	-150.1554
167.500000	87.911	-150.4194
170.000000	87.928	-150.6795
172.500000	87.945	-150.8280
175.000000	87.965	-150.9519
177.500000	87.981	-151.0774
180.000000	87.997	-151.2019
182.500000	88.010	-151.3877
185.000000	88.019	-151.5713
187.500000	88.028	-151.6987
190.000000	88.036	-151.7842
192.500000	88.042	-151.8409
195.000000	88.052	-151.8909
197.500000	88.067	-151.9416
200.000000	88.083	-151.9721
203.000000	88.105	-151.9870
206.000000	88.133	-152.0000
209.000000	88.165	-151.9957
212.000000	88.196	-152.0186
214.000000	88.215	-152.0678
218.000000	88.257	-152.1926
220.000000	88.283	-152.2416
224.000000	88.333	-152.3267
227.000000	88.366	-152.3951
230.000000	88.399	-152.4717
233.000000	88.436	-152.5582
236.000000	88.474	-152.6777
240.000000	88.514	-152.8239
243.000000	88.544	-152.9446
247.000000	88.602	-153.1653
250.000000	88.661	-153.3538
254.000000	88.733	-153.7323
258.000000	88.790	-154.2257
262.000000	88.844	-154.8144
265.000000	88.872	-155.3217
269.000000	88.889	-156.0287
272.000000	88.879	-156.6014
276.000000	88.830	-157.4290
280.000000	88.745	-158.2232
285.000000	88.599	-158.9364
290.000000	88.428	-159.2156
295.000000	88.246	-158.9932
300.000000	88.093	-158.3416
304.000000	88.007	-157.7166
307.000000	87.961	-157.2032
311.000000	87.921	-156.4474
315.000000	87.913	-155.6740
320.000000	87.935	-154.7533
325.000000	87.983	-153.9512
330.000000	88.059	-153.3245
335.000000	88.150	-152.8498
340.000000	88.228	-152.5189
345.000000	88.288	-152.2860
350.000000	88.359	-152.1628
355.000000	88.433	-152.1892
360.000000	88.481	-152.3398
365.000000	88.500	-152.4960
370.000000	88.503	-152.5938
375.000000	88.478	-152.6459
382.000000	88.398	-152.3604
387.000000	88.347	-151.6972
395.000000	88.413	-150.0347
400.000000	88.554	-149.2791
406.000000	88.728	-149.0255
412.000000	88.861	-149.2134
418.000000	88.943	-149.5674
425.000000	88.971	-149.9150
431.000000	88.958	-149.9428
437.000000	88.951	-149.7069
444.000000	88.983	-149.2021
450.000000	89.043	-148.7663
455.000000	89.107	-148.5050
462.000000	89.202	-148.2899
468.000000	89.277	-148.1738
475.000000	89.354	-148.0743
482.000000	89.426	-147.9392
487.000000	89.482	-147.8014
494.000000	89.576	-147.6448
500.000000	89.666	-147.6245
508.000000	89.783	-147.7906
515.000000	89.869	-148.0724
522.000000	89.937	-148.4144
530.000000	89.992	-148.8507
538.000000	90.018	-149.2616
545.000000	90.024	-149.5197
552.000000	90.021	-149.7123
560.000000	90.006	-149.8268
570.000000	89.975	-149.7125
580.000000	89.960	-149.3456
590.000000	89.980	-148.8587
600.000000	90.034	-148.3193
608.000000	90.101	-147.9479
615.000000	90.170	-147.7300
622.000000	90.242	-147.6246
630.000000	90.319	-147.5949
640.000000	90.403	-147.6244
650.000000	90.474	-147.6780
660.000000	90.529	-147.7250
670.000000	90.585	-147.7457
680.000000	90.640	-147.7988
690.000000	90.684	-147.8280
700.000000	90.724	-147.8209
710.000000	90.767	-147.7688
720.000000	90.819	-147.7101
730.000000	90.872	-147.7086
740.000000	90.925	-147.7344
750.000000	90.985	-147.7887
762.000000	91.046	-147.9156
775.000000	91.080	-148.0563
788.000000	91.092	-148.0978
800.000000	91.102	-147.9491
812.000000	91.137	-147.7071
825.000000	91.190	-147.5511
838.000000	91.245	-147.4388
850.000000	91.289	-147.4042
862.000000	91.315	-147.3747
875.000000	91.327	-147.2543
885.000000	91.340	-147.0847
900.000000	91.370	-146.7012
912.000000	91.412	-146.3162
925.000000	91.477	-145.8901
938.000000	91.555	-145.5891
950.000000	91.627	-145.4250
962.000000	91.688	-145.2771
975.000000	91.756	-145.0501
988.000000	91.836	-144.7730
1000.000000	91.913	-144.6007
1015.000000	92.003	-144.5269
1030.000000	92.086	-144.4702
1044.000000	92.160	-144.3944
1060.000000	92.244	-144.2570
1075.000000	92.329	-144.1060
1090.000000	92.421	-144.0114
1106.000000	92.515	-144.0072
1120.000000	92.593	-144.0226
1138.000000	92.691	-144.0505
1150.000000	92.754	-144.0809
1172.000000	92.867	-144.1418
1180.000000	92.908	-144.1612
1206.000000	93.057	-144.3423
1220.000000	93.129	-144.5983
1241.000000	93.187	-145.0050
1250.000000	93.201	-145.1038
1265.000000	93.227	-145.1675
1280.000000	93.261	-145.1837
1315.000000	93.343	-145.1798
1320.000000	93.355	-145.1697
1340.000000	93.399	-145.0912
1360.000000	93.448	-144.9407
1380.000000	93.508	-144.7369
1400.000000	93.578	-144.5385
1430.000000	93.701	-144.2959
1450.000000	93.793	-144.1886
1475.000000	93.911	-144.1744
1500.000000	94.016	-144.2848
1525.000000	94.102	-144.4463
1550.000000	94.172	-144.5822
1575.000000	94.231	-144.6466
1600.000000	94.282	-144.6355
1625.000000	94.326	-144.5501
1650.000000	94.363	-144.2782
1675.000000	94.423	-143.7750
1700.000000	94.529	-143.2124
1725.000000	94.675	-142.8154
1750.000000	94.833	-142.6615
1775.000000	94.987	-142.7044
1800.000000	95.130	-142.9496
1825.000000	95.237	-143.3870
1850.000000	95.280	-143.8387
1875.000000	95.252	-143.8245
1900.000000	95.273	-142.8444
1925.000000	95.478	-141.8620
1950.000000	95.720	-141.8743
1975.000000	95.889	-142.3045
2000.000000	96.016	-142.6506
2030.000000	96.158	-142.9183
2060.000000	96.308	-143.1641
2090.000000	96.470	-143.4356
2120.000000	96.641	-143.8253
2140.000000	96.754	-144.2013
2180.000000	96.954	-145.1627
2200.000000	97.038	-145.7050
2240.000000	97.179	-146.8745
2270.000000	97.262	-147.8040
2300.000000	97.323	-148.7473
2330.000000	97.346	-149.6772
2360.000000	97.327	-150.5008
2400.000000	97.270	-151.2103
2430.000000	97.237	-151.4636
2470.000000	97.209	-151.6461
2500.000000	97.169	-151.7079
2540.000000	97.112	-151.6257
2580.000000	97.059	-151.1076
2620.000000	97.037	-150.2333
2650.000000	97.055	-149.4322
2690.000000	97.134	-148.1310
2720.000000	97.255	-147.0621
2760.000000	97.497	-145.8161
2800.000000	97.802	-144.9949
2850.000000	98.201	-144.6223
2900.000000	98.595	-144.5636
2950.000000	99.024	-144.7015
3000.000000	99.503	-145.3520
3040.000000	99.901	-146.3840
3070.000000	100.198	-147.5045
3110.000000	100.567	-149.5109
3150.000000	100.874	-152.0267
3200.000000	101.141	-155.5876
3250.000000	101.282	-159.2956
3300.000000	101.307	-162.8942
3350.000000	101.234	-166.0954
3400.000000	101.120	-168.7331
3450.000000	101.025	-171.0364
3500.000000	100.949	-173.4796
3550.000000	100.828	-176.2955
3600.000000	100.595	-179.2159
3650.000000	100.234	178.2697
3700.000000	99.778	176.6091
3750.000000	99.293	176.0661
3820.000000	98.729	176.8892
3870.000000	98.467	177.9953
3950.000000	98.256	179.7007
4000.000000	98.208	-179.4906
4060.000000	98.191	-178.8667
4120.000000	98.178	-178.5064
4180.000000	98.159	-178.2209
4250.000000	98.137	-177.7920
4310.000000	98.148	-177.1530
4370.000000	98.240	-176.3931
4440.000000	98.461	-175.9265
4500.000000	98.690	-176.2263
4550.000000	98.863	-176.9222
4620.000000	99.044	-178.2893
4680.000000	99.142	-179.5285
4750.000000	99.226	179.2476
4820.000000	99.340	178.2409
4870.000000	99.459	177.4600
4940.000000	99.659	176.0181
5000.000000	99.838	174.3990
5080.000000	100.067	171.6843
5150.000000	100.234	168.7371
5220.000000	100.334	165.3154
5300.000000	100.338	161.1042
5380.000000	100.235	156.9028
5450.000000	100.085	153.3403
5520.000000	99.895	149.7894
5600.000000	99.614	145.5923
5700.000000	99.096	140.3438
5800.000000	98.378	135.8625
5900.000000	97.550	132.6044
6000.000000	96.690	130.2672
6080.000000	95.966	128.8507
6150.000000	95.284	128.0630
6220.000000	94.557	127.9550
6300.000000	93.702	128.9366
6400.000000	92.699	131.9061
6500.000000	91.895	136.4653
6600.000000	91.396	141.9856
6700.000000	91.288	147.4518
6800.000000	91.519	151.3356
6900.000000	91.822	152.7017
7000.000000	91.940	152.1819
7100.000000	91.786	151.2678
7200.000000	91.427	151.3781
7300.000000	91.053	153.1429
7400.000000	90.880	156.0563
7500.000000	91.009	158.7635
7620.000000	91.409	159.7766
7750.000000	91.734	157.5899
7880.000000	91.728	153.7035
8000.000000	91.465	149.7081
8120.000000	91.015	145.3727
8250.000000	90.263	139.5471
8380.000000	88.924	133.2835
8500.000000	86.904	131.2218
8620.000000	84.255	138.7486
8750.000000	82.158	157.7910
8850.000000	82.218	171.2129
9000.000000	82.924	-178.8190
9120.000000	83.301	-172.9724
9250.000000	83.978	-168.0887
9380.000000	84.569	-167.1174
9500.000000	84.706	-168.2896
9620.000000	84.425	-169.0958
9750.000000	83.815	-167.6980
9880.000000	83.150	-163.3209
10000.000000	82.726	-157.0983
10150.000000	82.672	-147.6928
10300.000000	83.245	-138.0140
10440.000000	84.340	-130.0972
10600.000000	86.101	-124.0725
10750.000000	87.941	-122.8053
10900.000000	89.606	-126.3913
11060.000000	90.843	-134.7612
11200.000000	91.295	-143.8414
11380.000000	91.059	-153.5116
11500.000000	90.624	-156.9183
11720.000000	90.048	-157.8820
11800.000000	90.007	-157.5478
12060.000000	90.331	-157.0081
12200.000000	90.659	-157.7063
12410.000000	91.156	-160.2009
12500.000000	91.346	-161.7073
12650.000000	91.607	-164.7169
12800.000000	91.784	-168.1301
13150.000000	92.104	-177.1271
13200.000000	92.154	-178.7931
13400.000000	92.264	172.8365
13600.000000	92.077	161.6647
13800.000000	91.430	147.8726
14000.000000	90.125	132.2666
14300.000000	86.609	110.5491
14500.000000	83.263	100.2857
14750.000000	77.952	98.4775
15000.000000	71.298	125.1961
15250.000000	66.427	167.1619
15500.000000	65.738	-170.1007
15750.000000	65.321	-144.9016
16000.000000	68.750	-111.0612
16250.000000	72.963	-99.5929
16500.000000	75.752	-106.7743
16750.000000	77.601	-117.8014
17000.000000	78.843	-129.5014
17250.000000	79.403	-142.0790
17500.000000	79.104	-153.5369
17750.000000	78.072	-160.8170
18000.000000	76.597	-163.0096
18250.000000	74.883	-160.1262
18500.000000	73.197	-152.5597
18750.000000	71.871	-142.9800
19000.000000	70.736	-134.3003
19250.000000	69.222	-125.2489
19500.000000	66.969	-110.4614
19750.000000	64.131	-85.8203
