* Measurement data measured by REW V5.20.13
* Source: Headset (KM-HIFI-384KHZ), MICROPHONE (Master Volume), R, volume: 0.250
* Format: 256k Log Swept Sine, 1 sweep at -13.0 dBFS with no timing reference
* Dated: Aug 6, 2023 11:34:08 PM
* REW Settings:
*  C-weighting compensation: Off
*  Target level: 75.0 dB
* Note: 
* Measurement: Aug 6
* Smoothing: 1/24 octave
* Frequency Step: 1/48 octave
* Start Frequency: 20.000 Hz
*
* Freq(Hz)	SPL(dB)	Phase(degrees)
20.000000	49.343	9.1531
20.299999	49.396	8.7571
20.600000	49.462	8.3479
20.900000	49.532	7.8430
21.200001	49.587	7.2386
21.400000	49.610	6.8376
21.799999	49.630	6.1602
22.000000	49.635	5.9214
22.400000	49.660	5.6268
22.700001	49.702	5.4350
23.000000	49.758	5.1211
23.299999	49.807	4.6383
23.600000	49.831	4.0493
24.000000	49.813	3.3120
24.299999	49.776	2.9819
24.700001	49.739	2.9314
25.000000	49.755	3.0666
25.400000	49.853	3.1389
25.799999	50.006	2.6836
26.200001	50.144	1.5481
26.500000	50.196	0.3775
26.900000	50.176	-1.2808
27.200001	50.097	-2.3293
27.600000	49.941	-3.1968
28.000000	49.782	-3.3575
28.500000	49.665	-2.7947
29.000000	49.680	-1.9429
29.500000	49.803	-1.2830
30.000000	49.983	-1.0461
30.400000	50.139	-1.1863
30.700001	50.252	-1.4753
31.100000	50.383	-2.0724
31.500000	50.480	-2.8330
32.000000	50.543	-3.8018
32.500000	50.561	-4.5312
33.000000	50.587	-4.9491
33.500000	50.657	-5.2958
34.000000	50.753	-5.9156
34.500000	50.820	-6.8636
35.000000	50.820	-7.8221
35.500000	50.776	-8.3764
36.000000	50.748	-8.4195
36.500000	50.780	-8.1909
37.000000	50.867	-8.0214
37.500000	50.978	-8.0609
38.200001	51.124	-8.4423
38.700001	51.203	-8.8931
39.500000	51.246	-9.7279
40.000000	51.219	-10.0640
40.599998	51.176	-10.0465
41.200001	51.196	-9.7506
41.799999	51.297	-9.7217
42.500000	51.431	-10.4368
43.099998	51.498	-11.3831
43.700001	51.540	-12.2499
44.400002	51.594	-13.0995
45.000000	51.649	-13.6619
45.500000	51.713	-13.9252
46.200001	51.857	-14.1128
46.799999	52.011	-14.3424
47.500000	52.175	-14.6057
48.200001	52.331	-14.7148
48.700001	52.434	-14.7651
49.400002	52.550	-14.7341
50.000000	52.650	-14.5568
50.799999	52.789	-14.5776
51.500000	52.841	-14.8247
52.200001	52.865	-14.8024
53.000000	52.933	-15.0195
53.799999	52.920	-15.6428
54.500000	52.895	-15.7346
55.200001	52.955	-16.1647
56.000000	52.894	-17.5471
57.000000	52.576	-17.1652
58.000000	52.667	-14.6060
59.000000	53.224	-13.7569
60.000000	53.674	-16.4365
60.799999	53.643	-18.4562
61.500000	53.647	-18.4333
62.200001	53.847	-18.6725
63.000000	53.955	-20.0526
64.000000	53.971	-20.0070
65.000000	54.247	-20.2727
66.000000	54.273	-21.2013
67.000000	54.408	-20.4224
68.000000	54.622	-21.2589
69.000000	54.605	-21.5059
70.000000	54.802	-21.0524
71.000000	54.938	-22.1558
72.000000	54.927	-22.1081
73.000000	55.149	-21.8391
74.000000	55.281	-23.0391
75.000000	55.255	-23.1371
76.199997	55.497	-22.7462
77.500000	55.627	-23.9870
78.800003	55.728	-23.3019
80.000000	56.057	-23.7999
81.199997	56.076	-25.0010
82.500000	56.184	-23.9867
83.800003	56.521	-24.7639
85.000000	56.477	-25.9880
86.199997	56.520	-24.7579
87.500000	56.943	-24.9011
88.500000	57.032	-26.7496
90.000000	56.861	-26.3894
91.199997	57.200	-24.7200
92.500000	57.631	-26.5168
93.800003	57.498	-28.6750
95.000000	57.366	-27.0842
96.199997	57.784	-25.1768
97.500000	58.279	-27.0177
98.800003	58.186	-29.8265
100.000000	57.906	-29.0072
101.500000	58.236	-25.8333
103.000000	58.935	-27.1859
104.400002	59.022	-31.4787
106.000000	58.529	-32.6727
107.500000	58.487	-29.1799
109.000000	59.196	-27.4250
110.599998	59.814	-31.1938
112.000000	59.738	-36.0758
113.800003	59.015	-37.8798
115.000000	58.664	-35.2686
117.199997	59.188	-29.9069
118.000000	59.558	-29.6687
120.599998	60.163	-35.1651
122.000000	59.865	-38.5333
124.099998	59.008	-38.6467
125.000000	58.714	-36.9243
126.500000	58.523	-32.9057
128.000000	58.725	-28.9291
131.500000	59.835	-25.1425
132.000000	59.986	-25.1637
134.000000	60.509	-25.7936
136.000000	60.901	-26.7218
138.000000	61.151	-27.3641
140.000000	61.339	-27.4201
143.000000	61.624	-26.7766
145.000000	61.820	-26.1162
147.500000	62.022	-25.1744
150.000000	62.166	-24.2430
152.500000	62.249	-23.6450
155.000000	62.292	-23.5942
157.500000	62.420	-24.6259
160.000000	62.740	-26.1615
162.500000	63.193	-26.7549
165.000000	63.559	-26.0448
167.500000	63.742	-25.3246
170.000000	63.886	-25.5541
172.500000	64.158	-26.1726
175.000000	64.490	-26.2841
177.500000	64.738	-26.0070
180.000000	64.933	-25.8373
182.500000	65.161	-25.8906
185.000000	65.416	-25.7893
187.500000	65.659	-25.6570
190.000000	65.877	-25.6815
192.500000	66.101	-25.7289
195.000000	66.333	-25.6849
197.500000	66.559	-25.6619
200.000000	66.775	-25.7403
203.000000	67.038	-25.8082
206.000000	67.320	-25.7975
209.000000	67.609	-25.7817
212.000000	67.891	-25.7723
214.000000	68.070	-25.7998
218.000000	68.417	-25.8983
220.000000	68.595	-25.9417
224.000000	68.952	-26.0151
227.000000	69.213	-26.0667
230.000000	69.474	-26.0865
233.000000	69.739	-26.0806
236.000000	70.003	-26.0883
240.000000	70.351	-26.1497
243.000000	70.611	-26.2446
247.000000	70.964	-26.3717
250.000000	71.230	-26.4325
254.000000	71.581	-26.5105
258.000000	71.931	-26.6240
262.000000	72.281	-26.7740
265.000000	72.546	-26.9003
269.000000	72.904	-27.0543
272.000000	73.170	-27.1696
276.000000	73.524	-27.3565
280.000000	73.878	-27.5632
285.000000	74.323	-27.8085
290.000000	74.775	-28.1147
295.000000	75.227	-28.4535
300.000000	75.680	-28.8154
304.000000	76.043	-29.1501
307.000000	76.314	-29.4121
311.000000	76.672	-29.7435
315.000000	77.036	-30.0366
320.000000	77.504	-30.3906
325.000000	77.991	-30.7919
330.000000	78.493	-31.2789
335.000000	79.007	-31.8857
340.000000	79.524	-32.6069
345.000000	80.048	-33.4299
350.000000	80.576	-34.3558
355.000000	81.109	-35.3779
360.000000	81.645	-36.5169
365.000000	82.180	-37.7741
370.000000	82.717	-39.1479
375.000000	83.262	-40.6578
382.000000	84.036	-43.0127
387.000000	84.592	-44.8947
395.000000	85.482	-48.3213
400.000000	86.034	-50.7397
406.000000	86.687	-53.9506
412.000000	87.323	-57.5179
418.000000	87.933	-61.4467
425.000000	88.600	-66.4845
431.000000	89.123	-71.1771
437.000000	89.591	-76.1836
444.000000	90.056	-82.3618
450.000000	90.376	-87.8765
455.000000	90.582	-92.5637
462.000000	90.774	-99.1461
468.000000	90.852	-104.6880
475.000000	90.849	-110.8972
482.000000	90.760	-116.7117
487.000000	90.653	-120.5790
494.000000	90.456	-125.5566
500.000000	90.257	-129.4069
508.000000	89.965	-133.9742
515.000000	89.698	-137.4869
522.000000	89.430	-140.5997
530.000000	89.130	-143.7367
538.000000	88.843	-146.4946
545.000000	88.605	-148.6454
552.000000	88.382	-150.5846
560.000000	88.145	-152.5784
570.000000	87.878	-154.7979
580.000000	87.644	-156.7936
590.000000	87.438	-158.6130
600.000000	87.264	-160.2914
608.000000	87.144	-161.5628
615.000000	87.052	-162.6396
622.000000	86.971	-163.6913
630.000000	86.891	-164.8678
640.000000	86.808	-166.3058
650.000000	86.747	-167.7236
660.000000	86.708	-169.1550
670.000000	86.690	-170.6320
680.000000	86.690	-172.1817
690.000000	86.713	-173.8475
700.000000	86.761	-175.7150
710.000000	86.829	-177.9677
720.000000	86.876	179.0877
730.000000	86.791	175.5162
740.000000	86.516	172.2771
750.000000	86.133	170.0317
762.000000	85.645	169.1959
775.000000	85.435	169.7943
788.000000	85.505	169.2225
800.000000	85.570	167.6115
812.000000	85.581	165.5912
825.000000	85.542	163.2540
838.000000	85.465	160.8736
850.000000	85.367	158.6731
862.000000	85.247	156.5085
875.000000	85.095	154.2313
885.000000	84.964	152.5425
900.000000	84.751	150.1353
912.000000	84.567	148.3044
925.000000	84.359	146.4199
938.000000	84.144	144.6550
950.000000	83.942	143.1232
962.000000	83.739	141.6729
975.000000	83.518	140.1857
988.000000	83.295	138.7895
1000.000000	83.091	137.5862
1015.000000	82.842	136.1738
1030.000000	82.600	134.8328
1044.000000	82.379	133.6333
1060.000000	82.133	132.3136
1075.000000	81.907	131.1206
1090.000000	81.686	129.9575
1106.000000	81.455	128.7247
1120.000000	81.254	127.6406
1138.000000	80.993	126.2552
1150.000000	80.818	125.3433
1172.000000	80.494	123.6952
1180.000000	80.374	123.1025
1206.000000	79.977	121.1924
1220.000000	79.758	120.1852
1241.000000	79.420	118.7164
1250.000000	79.271	118.1041
1265.000000	79.018	117.1094
1280.000000	78.756	116.1619
1315.000000	78.123	114.1801
1320.000000	78.032	113.9222
1340.000000	77.658	112.9454
1360.000000	77.277	112.0748
1380.000000	76.898	111.3007
1400.000000	76.517	110.6342
1430.000000	75.939	109.8361
1450.000000	75.556	109.4402
1475.000000	75.079	109.0857
1500.000000	74.602	108.8668
1525.000000	74.131	108.7974
1550.000000	73.669	108.8548
1575.000000	73.212	109.0295
1600.000000	72.763	109.3237
1625.000000	72.322	109.7189
1650.000000	71.889	110.2029
1675.000000	71.462	110.7659
1700.000000	71.043	111.3863
1725.000000	70.630	112.0591
1750.000000	70.218	112.8227
1775.000000	69.812	113.6588
1800.000000	69.411	114.5508
1825.000000	69.015	115.4846
1850.000000	68.624	116.4605
1875.000000	68.235	117.4845
1900.000000	67.847	118.5594
1925.000000	67.455	119.6616
1950.000000	67.057	120.8054
1975.000000	66.655	122.0036
2000.000000	66.246	123.2497
2030.000000	65.745	124.8665
2060.000000	65.234	126.7001
2090.000000	64.714	128.6812
2120.000000	64.189	130.7601
2140.000000	63.833	132.2132
2180.000000	63.095	135.2815
2200.000000	62.706	136.8955
2240.000000	61.863	140.3603
2270.000000	61.150	143.3328
2300.000000	60.354	146.8906
2330.000000	59.451	151.3237
2360.000000	58.425	157.3001
2400.000000	56.947	169.3521
2430.000000	56.011	-177.5303
2470.000000	55.761	-155.9814
2500.000000	56.625	-139.8873
2540.000000	58.667	-122.7164
2580.000000	60.971	-111.6600
2620.000000	63.239	-105.4396
2650.000000	64.862	-103.2585
2690.000000	66.843	-103.1184
2720.000000	68.165	-104.7183
2760.000000	69.672	-108.7457
2800.000000	70.850	-114.3293
2850.000000	71.863	-122.4434
2900.000000	72.395	-130.6422
2950.000000	72.530	-137.9380
3000.000000	72.382	-143.6966
3040.000000	72.146	-147.0883
3070.000000	71.936	-148.9879
3110.000000	71.647	-150.7938
3150.000000	71.363	-151.9736
3200.000000	71.018	-152.7867
3250.000000	70.698	-152.9135
3300.000000	70.432	-152.5857
3350.000000	70.209	-152.0112
3400.000000	70.008	-151.2281
3450.000000	69.828	-150.2702
3500.000000	69.673	-149.1476
3550.000000	69.546	-147.9117
3600.000000	69.447	-146.5933
3650.000000	69.387	-145.2174
3700.000000	69.366	-143.8785
3750.000000	69.381	-142.7253
3820.000000	69.429	-141.7280
3870.000000	69.426	-141.5235
3950.000000	69.245	-141.4173
4000.000000	69.030	-140.8378
4060.000000	68.753	-139.1812
4120.000000	68.559	-136.6349
4180.000000	68.507	-133.7368
4250.000000	68.613	-130.5577
4310.000000	68.803	-128.2894
4370.000000	69.050	-126.4984
4440.000000	69.389	-124.9956
4500.000000	69.709	-124.2450
4550.000000	69.987	-124.0144
4620.000000	70.382	-124.3286
4680.000000	70.715	-125.2101
4750.000000	71.081	-126.9875
4820.000000	71.400	-129.6490
4870.000000	71.578	-132.1216
4940.000000	71.729	-136.3513
5000.000000	71.737	-140.5612
5080.000000	71.534	-146.6375
5150.000000	71.148	-151.9451
5220.000000	70.582	-156.8314
5300.000000	69.758	-161.5441
5380.000000	68.803	-165.1326
5450.000000	67.910	-167.3621
5520.000000	66.998	-168.8242
5600.000000	65.962	-169.7125
5700.000000	64.705	-169.9340
5800.000000	63.502	-169.4121
5900.000000	62.358	-168.3323
6000.000000	61.283	-166.8507
6080.000000	60.461	-165.4327
6150.000000	59.766	-164.0607
6220.000000	59.102	-162.5731
6300.000000	58.381	-160.7535
6400.000000	57.524	-158.3585
6500.000000	56.742	-155.8071
6600.000000	56.017	-153.1847
6700.000000	55.336	-150.5314
6800.000000	54.712	-147.7981
6900.000000	54.118	-145.1044
7000.000000	53.519	-142.3494
7100.000000	52.902	-139.4248
7200.000000	52.214	-136.0128
7300.000000	51.367	-131.2695
7400.000000	50.322	-123.1064
7500.000000	49.555	-108.9700
7620.000000	50.294	-87.5307
7750.000000	53.706	-65.0176
7880.000000	57.963	-56.0497
8000.000000	60.749	-62.7179
8120.000000	62.571	-73.7594
8250.000000	63.959	-86.0659
8380.000000	64.830	-99.5201
8500.000000	64.997	-112.6204
8620.000000	64.540	-123.9677
8750.000000	63.684	-132.7944
8850.000000	63.007	-138.2141
9000.000000	61.967	-146.4711
9120.000000	60.957	-154.0037
9250.000000	59.544	-163.2509
9380.000000	57.750	-174.4759
9500.000000	55.681	171.8297
9620.000000	53.196	153.0007
9750.000000	50.539	124.0280
9880.000000	49.236	88.6615
10000.000000	49.598	59.8424
10150.000000	50.665	38.0827
10300.000000	51.538	30.9099
10440.000000	52.317	32.6216
10600.000000	53.429	39.3185
10750.000000	54.735	47.2076
10900.000000	56.327	55.0851
11060.000000	58.370	61.8347
11200.000000	60.329	64.6573
11380.000000	62.517	61.3369
11500.000000	63.356	54.9304
11720.000000	63.377	42.6832
11800.000000	63.049	39.7846
12060.000000	61.419	35.8940
12200.000000	60.243	37.3470
12410.000000	58.379	44.8749
12500.000000	57.669	49.6325
12650.000000	56.720	58.5875
12800.000000	56.049	67.7862
13150.000000	55.033	88.4719
13200.000000	54.921	91.2704
13400.000000	54.447	102.2187
13600.000000	53.915	113.4980
13800.000000	53.412	125.2245
14000.000000	53.001	137.4264
14300.000000	52.681	156.1401
14500.000000	52.708	167.5886
14750.000000	52.766	179.7332
15000.000000	52.774	-169.0431
15250.000000	52.944	-159.2787
15500.000000	53.274	-151.8440
15750.000000	53.938	-147.0486
16000.000000	55.291	-146.7398
16250.000000	57.523	-154.6858
16500.000000	59.886	-175.7131
16750.000000	60.940	150.6837
17000.000000	60.030	119.3558
17250.000000	57.898	103.3079
17500.000000	55.827	100.5790
17750.000000	54.408	105.3758
18000.000000	53.566	114.1457
18250.000000	53.035	125.2144
18500.000000	52.684	138.2515
18750.000000	52.590	153.0881
19000.000000	52.872	168.4026
19250.000000	53.308	-177.7437
19500.000000	53.584	-165.2552
19750.000000	53.692	-154.0289
