* Measurement data measured by REW V5.20.13
* Source: Headset (KM-HIFI-384KHZ), MICROPHONE (Master Volume), R, volume: 0.250
* Format: 256k Log Swept Sine, 1 sweep at -13.0 dBFS with no timing reference
* Dated: Aug 6, 2023 11:34:39 PM
* REW Settings:
*  C-weighting compensation: Off
*  Target level: 75.0 dB
* Note: 
* Measurement: Aug 6
* Smoothing: 1/24 octave
* Frequency Step: 1/48 octave
* Start Frequency: 20.000 Hz
*
* Freq(Hz)	SPL(dB)	Phase(degrees)
20.000000	50.112	-1.5695
20.299999	50.149	-1.6890
20.600000	50.216	-1.8569
20.900000	50.300	-2.1521
21.200001	50.388	-2.5753
21.400000	50.444	-2.8996
21.799999	50.554	-3.6115
22.000000	50.608	-3.9893
22.400000	50.715	-4.7996
22.700001	50.790	-5.4695
23.000000	50.854	-6.1804
23.299999	50.902	-6.8857
23.600000	50.934	-7.5355
24.000000	50.959	-8.2479
24.299999	50.971	-8.6387
24.700001	50.987	-8.9609
25.000000	51.005	-9.0562
25.400000	51.046	-9.0003
25.799999	51.122	-8.7970
26.200001	51.245	-8.5950
26.500000	51.365	-8.5663
26.900000	51.544	-8.8156
27.200001	51.675	-9.2488
27.600000	51.820	-10.1042
28.000000	51.918	-11.1311
28.500000	51.975	-12.3998
29.000000	51.983	-13.4368
29.500000	51.975	-14.1732
30.000000	51.978	-14.6737
30.400000	51.995	-14.9897
30.700001	52.015	-15.2101
31.100000	52.044	-15.4786
31.500000	52.074	-15.6727
32.000000	52.121	-15.7253
32.500000	52.205	-15.5768
33.000000	52.342	-15.4141
33.500000	52.517	-15.4628
34.000000	52.691	-15.8087
34.500000	52.832	-16.3198
35.000000	52.938	-16.7821
35.500000	53.033	-17.0776
36.000000	53.143	-17.2983
36.500000	53.264	-17.6322
37.000000	53.369	-18.1461
37.500000	53.440	-18.6841
38.200001	53.522	-19.1332
38.700001	53.620	-19.3459
39.500000	53.819	-20.2485
40.000000	53.897	-21.1309
40.599998	53.923	-21.9595
41.200001	53.955	-22.2094
41.799999	54.054	-22.2076
42.500000	54.221	-22.4319
43.099998	54.348	-22.7482
43.700001	54.464	-22.9446
44.400002	54.611	-23.1069
45.000000	54.731	-23.3304
45.500000	54.813	-23.5148
46.200001	54.920	-23.6694
46.799999	55.022	-23.8093
47.500000	55.135	-24.1104
48.200001	55.236	-24.4138
48.700001	55.316	-24.5760
49.400002	55.455	-24.8503
50.000000	55.583	-25.2045
50.799999	55.745	-25.6995
51.500000	55.883	-26.0098
52.200001	56.026	-26.2067
53.000000	56.184	-26.3603
53.799999	56.313	-26.4240
54.500000	56.401	-26.3069
55.200001	56.482	-26.1284
56.000000	56.527	-25.9760
57.000000	56.534	-24.9853
58.000000	56.807	-23.6215
59.000000	57.191	-24.6301
60.000000	57.310	-26.6742
60.799999	57.346	-27.5054
61.500000	57.431	-27.8953
62.200001	57.551	-28.2585
63.000000	57.701	-28.6184
64.000000	57.894	-28.9176
65.000000	58.081	-29.0754
66.000000	58.257	-29.1567
67.000000	58.419	-29.2461
68.000000	58.568	-29.4037
69.000000	58.704	-29.6132
70.000000	58.836	-29.7926
71.000000	58.983	-29.9296
72.000000	59.139	-30.0905
73.000000	59.293	-30.2242
74.000000	59.451	-30.3162
75.000000	59.608	-30.4649
76.199997	59.786	-30.6935
77.500000	59.979	-31.0063
78.800003	60.171	-31.3658
80.000000	60.353	-31.6309
81.199997	60.545	-31.7871
82.500000	60.755	-31.9006
83.800003	60.954	-31.9626
85.000000	61.123	-32.0171
86.199997	61.283	-32.0651
87.500000	61.457	-32.1641
88.500000	61.592	-32.2741
90.000000	61.799	-32.4454
91.199997	61.970	-32.5813
92.500000	62.152	-32.7268
93.800003	62.333	-32.8209
95.000000	62.502	-32.9313
96.199997	62.660	-33.0576
97.500000	62.829	-33.1202
98.800003	63.009	-33.1572
100.000000	63.179	-33.2738
101.500000	63.371	-33.5085
103.000000	63.543	-33.6667
104.400002	63.713	-33.7217
106.000000	63.922	-33.8147
107.500000	64.125	-33.8990
109.000000	64.333	-33.9828
110.599998	64.545	-34.0994
112.000000	64.722	-34.1589
113.800003	64.949	-34.2893
115.000000	65.093	-34.4230
117.199997	65.354	-34.6697
118.000000	65.450	-34.7584
120.599998	65.762	-34.9222
122.000000	65.935	-34.9355
124.099998	66.194	-34.9496
125.000000	66.303	-34.9746
126.500000	66.481	-35.0788
128.000000	66.650	-35.2187
131.500000	67.061	-35.4290
132.000000	67.123	-35.4576
134.000000	67.368	-35.5931
136.000000	67.597	-35.7390
138.000000	67.813	-35.8715
140.000000	68.029	-36.0110
143.000000	68.368	-36.2065
145.000000	68.597	-36.3620
147.500000	68.868	-36.5728
150.000000	69.134	-36.7355
152.500000	69.415	-36.8839
155.000000	69.700	-37.0754
157.500000	69.970	-37.2998
160.000000	70.224	-37.5175
162.500000	70.479	-37.6937
165.000000	70.740	-37.8936
167.500000	71.005	-38.1104
170.000000	71.271	-38.3444
172.500000	71.531	-38.5398
175.000000	71.790	-38.6764
177.500000	72.051	-38.8828
180.000000	72.303	-39.1660
182.500000	72.553	-39.4505
185.000000	72.800	-39.7368
187.500000	73.049	-40.0208
190.000000	73.301	-40.3146
192.500000	73.552	-40.6105
195.000000	73.801	-40.9041
197.500000	74.049	-41.2228
200.000000	74.297	-41.5688
203.000000	74.593	-41.9539
206.000000	74.888	-42.3337
209.000000	75.178	-42.7490
212.000000	75.469	-43.1576
214.000000	75.665	-43.4312
218.000000	76.056	-44.0450
220.000000	76.247	-44.3895
224.000000	76.627	-45.1011
227.000000	76.911	-45.6154
230.000000	77.195	-46.1247
233.000000	77.481	-46.6652
236.000000	77.768	-47.2479
240.000000	78.149	-48.0644
243.000000	78.433	-48.7103
247.000000	78.809	-49.6165
250.000000	79.088	-50.3162
254.000000	79.460	-51.2983
258.000000	79.830	-52.3244
262.000000	80.199	-53.4086
265.000000	80.468	-54.2428
269.000000	80.830	-55.3662
272.000000	81.097	-56.2916
276.000000	81.441	-57.5406
280.000000	81.797	-58.8063
285.000000	82.232	-60.6656
290.000000	82.627	-62.4449
295.000000	83.067	-64.1256
300.000000	83.535	-66.3722
304.000000	83.847	-68.6398
307.000000	84.024	-70.3895
311.000000	84.199	-72.4927
315.000000	84.342	-74.2008
320.000000	84.529	-75.8461
325.000000	84.746	-77.2256
330.000000	84.979	-78.6294
335.000000	85.202	-80.2016
340.000000	85.404	-81.9841
345.000000	85.603	-84.0302
350.000000	85.822	-86.2802
355.000000	86.082	-88.5290
360.000000	86.370	-90.7263
365.000000	86.632	-92.9999
370.000000	86.849	-95.4078
375.000000	87.043	-97.8412
382.000000	87.291	-101.2144
387.000000	87.455	-103.7271
395.000000	87.688	-107.9340
400.000000	87.808	-110.6064
406.000000	87.926	-113.7550
412.000000	88.013	-116.7818
418.000000	88.071	-119.6635
425.000000	88.096	-122.9169
431.000000	88.093	-125.6655
437.000000	88.075	-128.3203
444.000000	88.038	-131.1975
450.000000	87.990	-133.4744
455.000000	87.942	-135.2651
462.000000	87.866	-137.6112
468.000000	87.796	-139.4859
475.000000	87.711	-141.5411
482.000000	87.627	-143.4635
487.000000	87.569	-144.7601
494.000000	87.489	-146.4678
500.000000	87.424	-147.8308
508.000000	87.341	-149.5350
515.000000	87.274	-150.9463
522.000000	87.213	-152.2853
530.000000	87.149	-153.7446
538.000000	87.091	-155.1467
545.000000	87.045	-156.3393
552.000000	87.001	-157.4979
560.000000	86.955	-158.7706
570.000000	86.904	-160.2915
580.000000	86.863	-161.7549
590.000000	86.829	-163.1541
600.000000	86.805	-164.5041
608.000000	86.793	-165.5602
615.000000	86.786	-166.4717
622.000000	86.783	-167.3778
630.000000	86.782	-168.4078
640.000000	86.786	-169.6969
650.000000	86.795	-171.0020
660.000000	86.808	-172.3398
670.000000	86.818	-173.7281
680.000000	86.819	-175.1466
690.000000	86.803	-176.5110
700.000000	86.780	-177.6519
710.000000	86.810	-178.5105
720.000000	86.943	-179.6983
730.000000	87.076	178.0802
740.000000	87.062	175.2374
750.000000	86.888	172.9325
762.000000	86.688	171.5954
775.000000	86.664	170.4375
788.000000	86.709	168.6390
800.000000	86.726	166.7028
812.000000	86.699	164.7391
825.000000	86.627	162.5701
838.000000	86.537	160.3516
850.000000	86.441	158.3771
862.000000	86.327	156.4658
875.000000	86.191	154.4529
885.000000	86.079	152.9639
900.000000	85.900	150.8315
912.000000	85.753	149.2117
925.000000	85.590	147.5399
938.000000	85.425	145.9560
950.000000	85.271	144.5579
962.000000	85.115	143.2159
975.000000	84.943	141.8201
988.000000	84.764	140.4868
1000.000000	84.593	139.3203
1015.000000	84.379	137.9338
1030.000000	84.164	136.6088
1044.000000	83.964	135.4271
1060.000000	83.738	134.1396
1075.000000	83.529	132.9916
1090.000000	83.327	131.8719
1106.000000	83.117	130.6743
1120.000000	82.937	129.6190
1138.000000	82.702	128.2776
1150.000000	82.545	127.4055
1172.000000	82.254	125.8152
1180.000000	82.147	125.2363
1206.000000	81.795	123.3352
1220.000000	81.598	122.3036
1241.000000	81.292	120.7759
1250.000000	81.158	120.1332
1265.000000	80.928	119.0823
1280.000000	80.690	118.0659
1315.000000	80.108	115.8119
1320.000000	80.021	115.5050
1340.000000	79.669	114.3334
1360.000000	79.306	113.2659
1380.000000	78.937	112.3020
1400.000000	78.560	111.4424
1430.000000	77.984	110.3657
1450.000000	77.595	109.7656
1475.000000	77.105	109.1212
1500.000000	76.616	108.6057
1525.000000	76.127	108.2416
1550.000000	75.636	108.0056
1575.000000	75.143	107.8925
1600.000000	74.650	107.8997
1625.000000	74.158	108.0295
1650.000000	73.668	108.2891
1675.000000	73.180	108.6389
1700.000000	72.694	109.0646
1725.000000	72.207	109.5725
1750.000000	71.716	110.1641
1775.000000	71.223	110.8417
1800.000000	70.725	111.6042
1825.000000	70.221	112.4331
1850.000000	69.710	113.3351
1875.000000	69.186	114.3164
1900.000000	68.646	115.3942
1925.000000	68.088	116.6056
1950.000000	67.511	117.9454
1975.000000	66.916	119.4110
2000.000000	66.298	121.0220
2030.000000	65.509	123.2333
2060.000000	64.659	125.8192
2090.000000	63.733	128.9101
2120.000000	62.722	132.7822
2140.000000	62.001	135.9478
2180.000000	60.428	144.3370
2200.000000	59.590	150.0042
2240.000000	57.960	165.4533
2270.000000	57.095	-178.8973
2300.000000	56.999	-160.9043
2330.000000	57.847	-143.2744
2360.000000	59.341	-128.4178
2400.000000	61.711	-114.0082
2430.000000	63.528	-106.8512
2470.000000	65.846	-101.2181
2500.000000	67.458	-99.2473
2540.000000	69.427	-98.8735
2580.000000	71.196	-100.5031
2620.000000	72.768	-103.7684
2650.000000	73.805	-107.1827
2690.000000	74.980	-112.8167
2720.000000	75.689	-117.6843
2760.000000	76.390	-124.7029
2800.000000	76.812	-131.8314
2850.000000	76.985	-140.1533
2900.000000	76.858	-147.1579
2950.000000	76.544	-152.6150
3000.000000	76.134	-156.6072
3040.000000	75.780	-158.9047
3070.000000	75.514	-160.1954
3110.000000	75.168	-161.4433
3150.000000	74.835	-162.2487
3200.000000	74.444	-162.7336
3250.000000	74.090	-162.7201
3300.000000	73.784	-162.3934
3350.000000	73.512	-161.8956
3400.000000	73.263	-161.2151
3450.000000	73.041	-160.3579
3500.000000	72.847	-159.3706
3550.000000	72.678	-158.2975
3600.000000	72.535	-157.1720
3650.000000	72.415	-156.0082
3700.000000	72.317	-154.8250
3750.000000	72.238	-153.6329
3820.000000	72.160	-151.9808
3870.000000	72.129	-150.8505
3950.000000	72.114	-149.1533
4000.000000	72.123	-148.1415
4060.000000	72.160	-146.9938
4120.000000	72.233	-145.9950
4180.000000	72.338	-145.2393
4250.000000	72.491	-144.7743
4310.000000	72.633	-144.8082
4370.000000	72.764	-145.2656
4440.000000	72.882	-146.2631
4500.000000	72.949	-147.4413
4550.000000	72.978	-148.6315
4620.000000	72.975	-150.6016
4680.000000	72.929	-152.5604
4750.000000	72.816	-155.2087
4820.000000	72.616	-158.3813
4870.000000	72.368	-160.9771
4940.000000	71.745	-163.6458
5000.000000	71.183	-163.4026
5080.000000	70.805	-163.4962
5150.000000	70.408	-165.3763
5220.000000	69.873	-167.3505
5300.000000	69.186	-168.9808
5380.000000	68.462	-169.9407
5450.000000	67.821	-170.3403
5520.000000	67.183	-170.4260
5600.000000	66.460	-170.1885
5700.000000	65.577	-169.4366
5800.000000	64.730	-168.2513
5900.000000	63.933	-166.7311
6000.000000	63.190	-164.9400
6080.000000	62.637	-163.3483
6150.000000	62.188	-161.8932
6220.000000	61.773	-160.4084
6300.000000	61.339	-158.6707
6400.000000	60.862	-156.4996
6500.000000	60.457	-154.3906
6600.000000	60.125	-152.3491
6700.000000	59.871	-150.4161
6800.000000	59.707	-148.7089
6900.000000	59.642	-147.2943
7000.000000	59.676	-146.3358
7100.000000	59.804	-146.1953
7200.000000	59.998	-147.3812
7300.000000	60.163	-150.5746
7400.000000	60.082	-156.2089
7500.000000	59.423	-162.7036
7620.000000	57.862	-164.5245
7750.000000	57.074	-165.1342
7880.000000	55.452	-171.8375
8000.000000	52.653	-137.1534
8120.000000	55.123	-89.3254
8250.000000	58.432	-88.1692
8380.000000	59.596	-104.1222
8500.000000	59.461	-113.6490
8620.000000	59.116	-116.2653
8750.000000	59.338	-116.5238
8850.000000	59.845	-119.1402
9000.000000	60.342	-130.2799
9120.000000	60.032	-144.9058
9250.000000	58.731	-165.6888
9380.000000	56.260	166.9070
9500.000000	52.880	131.9868
9620.000000	48.976	87.7005
9750.000000	46.813	43.9546
9880.000000	47.802	20.0735
10000.000000	49.225	12.6420
10150.000000	50.607	12.4801
10300.000000	51.637	17.3799
10440.000000	52.686	24.7018
10600.000000	54.270	33.4050
10750.000000	55.915	38.6592
10900.000000	57.189	39.2856
11060.000000	57.610	37.4988
11200.000000	57.279	39.4847
11380.000000	57.059	49.7072
11500.000000	57.633	58.0718
11720.000000	59.473	66.0562
11800.000000	59.937	65.6079
12060.000000	59.668	63.8657
12200.000000	59.187	69.1548
12410.000000	59.504	77.1870
12500.000000	59.674	78.1403
12650.000000	59.483	78.3574
12800.000000	58.808	80.3802
13150.000000	57.031	92.8228
13200.000000	56.791	94.9747
13400.000000	55.801	104.6533
13600.000000	54.873	116.2764
13800.000000	54.168	129.1511
14000.000000	53.789	142.2320
14300.000000	53.567	159.1468
14500.000000	53.313	169.2581
14750.000000	52.960	-177.7092
15000.000000	52.760	-164.7523
15250.000000	52.834	-153.5308
15500.000000	53.011	-145.0283
15750.000000	53.313	-138.8547
16000.000000	54.071	-136.2902
16250.000000	55.579	-140.4479
16500.000000	57.549	-155.5930
16750.000000	58.912	176.4801
17000.000000	58.765	144.5457
17250.000000	57.258	122.6854
17500.000000	55.369	114.9937
17750.000000	53.935	116.8625
18000.000000	53.075	123.6970
18250.000000	52.573	133.3671
18500.000000	52.259	144.9052
18750.000000	52.084	157.6620
19000.000000	52.018	171.1815
19250.000000	52.006	-174.6996
19500.000000	52.034	-160.6624
19750.000000	52.058	-148.8453
