* Measurement data measured by REW V5.20.13
* Source: Headset (KM-HIFI-384KHZ), MICROPHONE (Master Volume), R, volume: 0.610
* Format: 256k Log Swept Sine, 1 sweep at -13.0 dBFS with no timing reference
* Dated: Aug 6, 2023 9:56:49 PM
* REW Settings:
*  C-weighting compensation: Off
*  Target level: 75.0 dB
* Note: 
* Measurement: Aug 6
* Smoothing: 1/24 octave
* Frequency Step: 1/48 octave
* Start Frequency: 20.000 Hz
*
* Freq(Hz)	SPL(dB)	Phase(degrees)
20.000000	103.171	41.8931
20.299999	103.199	41.1104
20.600000	103.228	40.3427
20.900000	103.257	39.5795
21.200001	103.284	38.8159
21.400000	103.300	38.3122
21.799999	103.327	37.3369
22.000000	103.339	36.8744
22.400000	103.363	36.0089
22.700001	103.385	35.3981
23.000000	103.412	34.7922
23.299999	103.442	34.1669
23.600000	103.470	33.5163
24.000000	103.497	32.6306
24.299999	103.509	31.9929
24.700001	103.516	31.2288
25.000000	103.523	30.7295
25.400000	103.542	30.1250
25.799999	103.574	29.5057
26.200001	103.609	28.8054
26.500000	103.628	28.2320
26.900000	103.639	27.4581
27.200001	103.637	26.9221
27.600000	103.630	26.3083
28.000000	103.629	25.7919
28.500000	103.649	25.1671
29.000000	103.678	24.4393
29.500000	103.698	23.6078
30.000000	103.700	22.7828
30.400000	103.694	22.1918
30.700001	103.690	21.7932
31.100000	103.690	21.2969
31.500000	103.695	20.8108
32.000000	103.706	20.1898
32.500000	103.718	19.5582
33.000000	103.728	18.9296
33.500000	103.738	18.3015
34.000000	103.745	17.6668
34.500000	103.746	17.0381
35.000000	103.740	16.4439
35.500000	103.732	15.9053
36.000000	103.726	15.4147
36.500000	103.725	14.9464
37.000000	103.727	14.4747
37.500000	103.731	13.9873
38.200001	103.735	13.2760
38.700001	103.735	12.7542
39.500000	103.726	11.9318
40.000000	103.717	11.4487
40.599998	103.706	10.9067
41.200001	103.698	10.3903
41.799999	103.692	9.8813
42.500000	103.686	9.2896
43.099998	103.678	8.7880
43.700001	103.669	8.2976
44.400002	103.657	7.7471
45.000000	103.647	7.2937
45.500000	103.639	6.9222
46.200001	103.627	6.4035
46.799999	103.617	5.9625
47.500000	103.605	5.4589
48.200001	103.593	4.9615
48.700001	103.584	4.6064
49.400002	103.570	4.1167
50.000000	103.557	3.7134
50.799999	103.540	3.1982
51.500000	103.526	2.7587
52.200001	103.510	2.3280
53.000000	103.492	1.8477
53.799999	103.474	1.3715
54.500000	103.458	0.9518
55.200001	103.441	0.5298
56.000000	103.420	0.0483
57.000000	103.393	-0.5385
58.000000	103.368	-1.1010
59.000000	103.346	-1.6537
60.000000	103.322	-2.1949
60.799999	103.303	-2.6094
61.500000	103.285	-2.9611
62.200001	103.266	-3.3060
63.000000	103.243	-3.6916
64.000000	103.211	-4.1615
65.000000	103.177	-4.6121
66.000000	103.143	-5.0386
67.000000	103.112	-5.4619
68.000000	103.083	-5.8922
69.000000	103.053	-6.3265
70.000000	103.024	-6.7576
71.000000	102.994	-7.1852
72.000000	102.963	-7.6083
73.000000	102.930	-8.0160
74.000000	102.898	-8.4105
75.000000	102.867	-8.7924
76.199997	102.831	-9.2357
77.500000	102.792	-9.6937
78.800003	102.749	-10.1371
80.000000	102.704	-10.5028
81.199997	102.658	-10.8456
82.500000	102.610	-11.2028
83.800003	102.567	-11.6339
85.000000	102.523	-12.0654
86.199997	102.486	-12.4972
87.500000	102.446	-12.9737
88.500000	102.416	-13.2819
90.000000	102.375	-13.7032
91.199997	102.332	-14.0116
92.500000	102.276	-14.2860
93.800003	102.219	-14.5412
95.000000	102.166	-14.8264
96.199997	102.110	-15.1260
97.500000	102.058	-15.4296
98.800003	102.017	-15.7836
100.000000	101.972	-16.1123
101.500000	101.910	-16.3939
103.000000	101.855	-16.6699
104.400002	101.786	-16.9846
106.000000	101.695	-17.2742
107.500000	101.619	-17.5367
109.000000	101.547	-17.8029
110.599998	101.468	-18.0212
112.000000	101.395	-18.0306
113.800003	101.323	-17.8380
115.000000	101.281	-17.6841
117.199997	101.209	-17.3353
118.000000	101.192	-17.1718
120.599998	101.230	-16.9543
122.000000	101.263	-17.3047
124.099998	101.263	-17.9863
125.000000	101.252	-18.2386
126.500000	101.232	-18.6054
128.000000	101.206	-18.9569
131.500000	101.114	-19.7513
132.000000	101.099	-19.8525
134.000000	101.038	-20.2345
136.000000	100.973	-20.5699
138.000000	100.904	-20.8365
140.000000	100.835	-21.0784
143.000000	100.737	-21.4099
145.000000	100.682	-21.6206
147.500000	100.616	-21.8979
150.000000	100.546	-22.1751
152.500000	100.472	-22.4547
155.000000	100.396	-22.7239
157.500000	100.319	-22.9631
160.000000	100.242	-23.1904
162.500000	100.163	-23.4109
165.000000	100.083	-23.6052
167.500000	100.005	-23.7743
170.000000	99.927	-23.9285
172.500000	99.848	-24.0753
175.000000	99.770	-24.2114
177.500000	99.693	-24.3333
180.000000	99.616	-24.4387
182.500000	99.539	-24.5318
185.000000	99.464	-24.6141
187.500000	99.389	-24.6881
190.000000	99.313	-24.7522
192.500000	99.235	-24.7900
195.000000	99.157	-24.7957
197.500000	99.082	-24.7800
200.000000	99.010	-24.7397
203.000000	98.929	-24.6606
206.000000	98.857	-24.5936
209.000000	98.790	-24.5667
212.000000	98.723	-24.5696
214.000000	98.675	-24.5787
218.000000	98.576	-24.5912
220.000000	98.524	-24.5843
224.000000	98.416	-24.5200
227.000000	98.335	-24.4314
230.000000	98.259	-24.3126
233.000000	98.186	-24.1621
236.000000	98.117	-23.9826
240.000000	98.037	-23.7172
243.000000	97.986	-23.5220
247.000000	97.930	-23.2985
250.000000	97.893	-23.1802
254.000000	97.843	-23.1207
258.000000	97.786	-23.1556
262.000000	97.721	-23.2098
265.000000	97.666	-23.2267
269.000000	97.586	-23.2118
272.000000	97.523	-23.1832
276.000000	97.440	-23.1254
280.000000	97.358	-23.0324
285.000000	97.257	-22.8785
290.000000	97.159	-22.7020
295.000000	97.061	-22.5008
300.000000	96.966	-22.2864
304.000000	96.892	-22.1008
307.000000	96.838	-21.9556
311.000000	96.767	-21.7563
315.000000	96.698	-21.5517
320.000000	96.614	-21.2928
325.000000	96.531	-21.0311
330.000000	96.449	-20.7629
335.000000	96.367	-20.4833
340.000000	96.288	-20.1892
345.000000	96.211	-19.8856
350.000000	96.136	-19.5782
355.000000	96.064	-19.2655
360.000000	95.993	-18.9491
365.000000	95.923	-18.6359
370.000000	95.854	-18.3236
375.000000	95.787	-18.0084
382.000000	95.695	-17.5550
387.000000	95.631	-17.2285
395.000000	95.529	-16.6976
400.000000	95.467	-16.3580
406.000000	95.394	-15.9434
412.000000	95.322	-15.5217
418.000000	95.252	-15.0938
425.000000	95.173	-14.5940
431.000000	95.107	-14.1611
437.000000	95.042	-13.7183
444.000000	94.968	-13.1982
450.000000	94.906	-12.7492
455.000000	94.856	-12.3718
462.000000	94.787	-11.8400
468.000000	94.730	-11.3821
475.000000	94.665	-10.8430
482.000000	94.601	-10.2976
487.000000	94.557	-9.9039
494.000000	94.497	-9.3493
500.000000	94.446	-8.8750
508.000000	94.381	-8.2402
515.000000	94.327	-7.6804
522.000000	94.274	-7.1177
530.000000	94.214	-6.4721
538.000000	94.157	-5.8243
545.000000	94.108	-5.2523
552.000000	94.061	-4.6749
560.000000	94.009	-4.0138
570.000000	93.947	-3.1892
580.000000	93.887	-2.3540
590.000000	93.832	-1.5100
600.000000	93.778	-0.6683
608.000000	93.736	0.0068
615.000000	93.702	0.6018
622.000000	93.669	1.1997
630.000000	93.632	1.8840
640.000000	93.589	2.7422
650.000000	93.547	3.5963
660.000000	93.507	4.4481
670.000000	93.469	5.3017
680.000000	93.433	6.1559
690.000000	93.398	7.0071
700.000000	93.363	7.8536
710.000000	93.326	8.6882
720.000000	93.285	9.5021
730.000000	93.232	10.3073
740.000000	93.156	11.1754
750.000000	93.057	12.3094
762.000000	92.973	14.2639
775.000000	93.017	16.4185
788.000000	93.088	17.8882
800.000000	93.097	19.2085
812.000000	93.120	20.9613
825.000000	93.262	22.9010
838.000000	93.458	24.0268
850.000000	93.571	24.5670
862.000000	93.625	25.1581
875.000000	93.663	26.0102
885.000000	93.691	26.7745
900.000000	93.742	28.0144
912.000000	93.791	29.0450
925.000000	93.853	30.1783
938.000000	93.923	31.3208
950.000000	93.995	32.3760
962.000000	94.075	33.4262
975.000000	94.169	34.5527
988.000000	94.271	35.6603
1000.000000	94.373	36.6578
1015.000000	94.510	37.8602
1030.000000	94.657	39.0123
1044.000000	94.803	40.0379
1060.000000	94.979	41.1352
1075.000000	95.151	42.0822
1090.000000	95.330	42.9446
1106.000000	95.525	43.7719
1120.000000	95.698	44.4139
1138.000000	95.918	45.1314
1150.000000	96.063	45.5460
1172.000000	96.323	46.1779
1180.000000	96.415	46.3711
1206.000000	96.702	46.8918
1220.000000	96.849	47.1171
1241.000000	97.058	47.4036
1250.000000	97.143	47.5122
1265.000000	97.280	47.6809
1280.000000	97.412	47.8387
1315.000000	97.702	48.1770
1320.000000	97.741	48.2245
1340.000000	97.897	48.4169
1360.000000	98.048	48.6146
1380.000000	98.196	48.8181
1400.000000	98.341	49.0289
1430.000000	98.558	49.3551
1450.000000	98.702	49.5764
1475.000000	98.882	49.8575
1500.000000	99.064	50.1386
1525.000000	99.247	50.4138
1550.000000	99.433	50.6771
1575.000000	99.623	50.9258
1600.000000	99.817	51.1555
1625.000000	100.016	51.3531
1650.000000	100.221	51.5137
1675.000000	100.429	51.6399
1700.000000	100.641	51.7268
1725.000000	100.856	51.7665
1750.000000	101.076	51.7546
1775.000000	101.299	51.6867
1800.000000	101.525	51.5574
1825.000000	101.753	51.3605
1850.000000	101.984	51.0909
1875.000000	102.216	50.7444
1900.000000	102.450	50.3152
1925.000000	102.683	49.7983
1950.000000	102.915	49.1909
1975.000000	103.145	48.4904
2000.000000	103.372	47.6923
2030.000000	103.636	46.6008
2060.000000	103.890	45.3636
2090.000000	104.131	43.9829
2120.000000	104.355	42.4580
2140.000000	104.494	41.3653
2180.000000	104.739	39.0152
2200.000000	104.845	37.7658
2240.000000	105.015	35.1482
2270.000000	105.103	33.1138
2300.000000	105.154	31.0593
2330.000000	105.165	29.0317
2360.000000	105.134	27.0978
2400.000000	105.032	24.8307
2430.000000	104.925	23.5144
2470.000000	104.800	22.3611
2500.000000	104.766	21.7396
2540.000000	104.797	20.6245
2580.000000	104.824	18.8669
2620.000000	104.770	16.7994
2650.000000	104.674	15.3165
2690.000000	104.499	13.6018
2720.000000	104.346	12.5369
2760.000000	104.129	11.3932
2800.000000	103.906	10.5306
2850.000000	103.631	9.7941
2900.000000	103.367	9.3758
2950.000000	103.119	9.2125
3000.000000	102.890	9.2538
3040.000000	102.720	9.4130
3070.000000	102.600	9.5988
3110.000000	102.451	9.9272
3150.000000	102.314	10.3372
3200.000000	102.161	10.9459
3250.000000	102.029	11.6354
3300.000000	101.915	12.3801
3350.000000	101.816	13.1769
3400.000000	101.734	14.0326
3450.000000	101.669	14.9186
3500.000000	101.615	15.7947
3550.000000	101.561	16.6992
3600.000000	101.504	17.7615
3650.000000	101.465	19.0833
3700.000000	101.473	20.5961
3750.000000	101.537	22.1226
3820.000000	101.697	24.0603
3870.000000	101.845	25.2689
3950.000000	102.126	26.9286
4000.000000	102.324	27.8024
4060.000000	102.581	28.6813
4120.000000	102.855	29.3807
4180.000000	103.144	29.9366
4250.000000	103.510	30.4719
4310.000000	103.869	30.8041
4370.000000	104.286	30.8518
4440.000000	104.829	30.2572
4500.000000	105.312	29.0000
4550.000000	105.700	27.3738
4620.000000	106.175	24.2694
4680.000000	106.490	21.0054
4750.000000	106.733	16.7974
4820.000000	106.850	12.4351
4870.000000	106.867	9.3043
4940.000000	106.803	4.9313
5000.000000	106.662	1.2379
5080.000000	106.345	-3.4166
5150.000000	105.953	-7.0098
5220.000000	105.476	-9.9841
5300.000000	104.864	-12.5362
5380.000000	104.220	-14.2117
5450.000000	103.650	-15.0319
5520.000000	103.089	-15.3241
5600.000000	102.459	-15.0826
5700.000000	101.687	-13.7175
5800.000000	101.063	-11.1398
5900.000000	100.607	-8.7506
6000.000000	100.162	-6.2753
6080.000000	99.838	-3.9619
6150.000000	99.594	-1.7580
6220.000000	99.387	0.5663
6300.000000	99.194	3.3364
6400.000000	99.019	6.9309
6500.000000	98.917	10.6371
6600.000000	98.890	14.4192
6700.000000	98.941	18.2317
6800.000000	99.072	22.0247
6900.000000	99.284	25.7543
7000.000000	99.580	29.3850
7100.000000	99.967	32.8802
7200.000000	100.453	36.1759
7300.000000	101.049	39.1763
7400.000000	101.766	41.7689
7500.000000	102.618	43.7994
7620.000000	103.848	45.1107
7750.000000	105.433	44.2357
7880.000000	107.149	39.3972
8000.000000	108.528	29.9064
8120.000000	109.277	15.7502
8250.000000	109.081	-0.9009
8380.000000	107.955	-13.8546
8500.000000	106.477	-20.9653
8620.000000	104.950	-24.1644
8750.000000	103.460	-24.6663
8850.000000	102.476	-23.7258
9000.000000	101.254	-20.9807
9120.000000	100.473	-18.0306
9250.000000	99.803	-14.3557
9380.000000	99.296	-10.3970
9500.000000	98.956	-6.6096
9620.000000	98.725	-2.7222
9750.000000	98.605	1.5476
9880.000000	98.621	5.7300
10000.000000	98.751	9.4034
10150.000000	99.064	13.6591
10300.000000	99.550	17.4245
10440.000000	100.173	20.2784
10600.000000	101.084	22.3715
10750.000000	102.118	22.7390
10900.000000	103.280	20.8624
11060.000000	104.502	15.4179
11200.000000	105.345	7.2294
11380.000000	105.780	-7.1620
11500.000000	105.552	-17.5864
11720.000000	104.136	-33.9297
11800.000000	103.383	-38.3257
12060.000000	100.475	-46.4529
12200.000000	98.771	-47.0375
12410.000000	96.268	-43.0646
12500.000000	95.297	-39.7738
12650.000000	93.933	-32.7692
12800.000000	92.965	-24.7248
13150.000000	92.141	-6.2581
13200.000000	92.153	-3.8705
13400.000000	92.469	4.7940
13600.000000	93.230	11.5571
13800.000000	94.429	14.6911
14000.000000	95.597	10.5343
14300.000000	94.812	0.7128
14500.000000	94.221	14.5513
14750.000000	97.447	23.2283
15000.000000	99.253	1.1965
15250.000000	98.067	-24.7180
15500.000000	95.140	-35.5165
15750.000000	92.181	-34.9477
16000.000000	89.970	-29.4277
16250.000000	88.504	-22.1213
16500.000000	87.604	-14.2306
16750.000000	87.189	-6.2809
17000.000000	87.262	1.1552
17250.000000	87.865	7.1991
17500.000000	89.011	10.2302
17750.000000	90.449	7.3053
18000.000000	91.439	-4.4517
18250.000000	91.147	-22.0984
18500.000000	89.341	-35.8909
18750.000000	86.579	-39.9615
19000.000000	83.812	-36.9401
19250.000000	81.660	-32.2167
19500.000000	79.939	-28.0697
19750.000000	78.453	-24.6248
